#t	<s0_z(t)*s0_z(0)>
0	1.16189
0.010006	1.16184
0.0200435	1.16132
0.030081	1.16078
0.0401185	1.16021
0.050156	1.15962
0.0601935	1.159
0.070231	1.15836
0.0802685	1.1577
0.090306	1.15701
0.100344	1.1563
0.110381	1.15556
0.120419	1.1548
0.130456	1.15402
0.140494	1.15321
0.150531	1.15237
0.160569	1.15152
0.170606	1.15064
0.180644	1.14973
0.190681	1.1488
0.200719	1.14785
0.210756	1.14688
0.220794	1.14588
0.230831	1.14486
0.240869	1.14381
0.250906	1.14275
0.260944	1.14165
0.270981	1.14054
0.281019	1.1394
0.291056	1.13824
0.301094	1.13706
0.311131	1.13586
0.321169	1.13463
0.331206	1.13338
0.341244	1.13211
0.351281	1.13081
0.361319	1.1295
0.371356	1.12816
0.381394	1.1268
0.391431	1.12542
0.401469	1.12401
0.411506	1.12259
0.421544	1.12114
0.431581	1.11968
0.441619	1.11819
0.451656	1.11668
0.461694	1.11515
0.471731	1.1136
0.481769	1.11202
0.491806	1.11043
0.501844	1.10882
0.511881	1.10719
0.521919	1.10553
0.531956	1.10386
0.541994	1.10217
0.552031	1.10045
0.562069	1.09872
0.572106	1.09697
0.582144	1.0952
0.592181	1.09341
0.602219	1.0916
0.612256	1.08977
0.622294	1.08793
0.632331	1.08606
0.642369	1.08418
0.652407	1.08228
0.662444	1.08036
0.672482	1.07842
0.682519	1.07647
0.692557	1.0745
0.702594	1.07251
0.712632	1.0705
0.722669	1.06847
0.732707	1.06643
0.742744	1.06438
0.752782	1.0623
0.762819	1.06021
0.772857	1.0581
0.782894	1.05598
0.792932	1.05384
0.802969	1.05169
0.813007	1.04952
0.823044	1.04733
0.833082	1.04513
0.843119	1.04292
0.853157	1.04069
0.863194	1.03844
0.873232	1.03618
0.883269	1.03391
0.893307	1.03162
0.903344	1.02932
0.913382	1.027
0.923419	1.02468
0.933457	1.02233
0.943494	1.01998
0.953532	1.01761
0.963569	1.01523
0.973607	1.01284
0.983644	1.01043
0.993682	1.00802
1.00372	1.00559
1.01376	1.00315
1.02379	1.0007
1.03383	0.998232
1.04387	0.995758
1.05391	0.993272
1.06394	0.990776
1.07398	0.98827
1.08402	0.985753
1.09406	0.983227
1.10409	0.98069
1.11413	0.978144
1.12417	0.975588
1.13421	0.973023
1.14424	0.97045
1.15428	0.967867
1.16432	0.965276
1.17436	0.962677
1.18439	0.960069
1.19443	0.957454
1.20447	0.95483
1.21451	0.9522
1.22454	0.949562
1.23458	0.946917
1.24462	0.944265
1.25466	0.941607
1.26469	0.938942
1.27473	0.936271
1.28477	0.933594
1.29481	0.930912
1.30484	0.928224
1.31488	0.925531
1.32492	0.922832
1.33496	0.920129
1.34499	0.917421
1.35503	0.914709
1.36507	0.911993
1.37511	0.909273
1.38514	0.906549
1.39518	0.903821
1.40522	0.901091
1.41526	0.898357
1.42529	0.89562
1.43533	0.892881
1.44537	0.89014
1.45541	0.887396
1.46544	0.884651
1.47548	0.881904
1.48552	0.879156
1.49556	0.876406
1.50559	0.873655
1.51563	0.870904
1.52567	0.868152
1.53571	0.8654
1.54574	0.862647
1.55578	0.859895
1.56582	0.857143
1.57586	0.854392
1.58589	0.851642
1.59593	0.848893
1.60597	0.846145
1.61601	0.843399
1.62604	0.840654
1.63608	0.837911
1.64612	0.835171
1.65616	0.832433
1.66619	0.829698
1.67623	0.826965
1.68627	0.824236
1.69631	0.82151
1.70634	0.818788
1.71638	0.816069
1.72642	0.813355
1.73646	0.810644
1.74649	0.807939
1.75653	0.805237
1.76657	0.802541
1.77661	0.79985
1.78664	0.797164
1.79668	0.794484
1.80672	0.79181
1.81676	0.789142
1.82679	0.78648
1.83683	0.783824
1.84687	0.781175
1.85691	0.778533
1.86694	0.775899
1.87698	0.773271
1.88702	0.770651
1.89706	0.768039
1.9071	0.765435
1.91713	0.762839
1.92717	0.760252
1.93721	0.757673
1.94725	0.755103
1.95728	0.752542
1.96732	0.749991
1.97736	0.747449
1.9874	0.744916
1.99743	0.742394
2.00747	0.739881
2.01751	0.73738
2.02755	0.734888
2.03758	0.732407
2.04762	0.729938
2.05766	0.727479
2.0677	0.725032
2.07773	0.722596
2.08777	0.720172
2.09781	0.71776
2.10785	0.715361
2.11788	0.712973
2.12792	0.710599
2.13796	0.708236
2.148	0.705887
2.15803	0.703551
2.16807	0.701229
2.17811	0.69892
2.18815	0.696625
2.19818	0.694343
2.20822	0.692076
2.21826	0.689823
2.2283	0.687584
2.23833	0.68536
2.24837	0.683151
2.25841	0.680958
2.26845	0.678779
2.27848	0.676615
2.28852	0.674468
2.29856	0.672336
2.3086	0.67022
2.31863	0.66812
2.32867	0.666036
2.33871	0.663969
2.34875	0.661918
2.35878	0.659884
2.36882	0.657868
2.37886	0.655868
2.3889	0.653885
2.39893	0.65192
2.40897	0.649973
2.41901	0.648044
2.42905	0.646132
2.43908	0.644239
2.44912	0.642363
2.45916	0.640506
2.4692	0.638668
2.47923	0.636849
2.48927	0.635048
2.49931	0.633266
2.50935	0.631504
2.51938	0.629761
2.52942	0.628037
2.53946	0.626333
2.5495	0.624649
2.55953	0.622984
2.56957	0.62134
2.57961	0.619716
2.58965	0.618112
2.59968	0.616528
2.60972	0.614965
2.61976	0.613423
2.6298	0.611901
2.63983	0.610401
2.64987	0.608921
2.65991	0.607463
2.66995	0.606026
2.67998	0.60461
2.68002	0.603222
2.69002	0.603216
2.70006	0.601844
2.7101	0.600493
2.72013	0.599165
2.73017	0.597858
2.74021	0.596573
2.75025	0.595311
2.76028	0.594071
2.77032	0.592853
2.78036	0.591658
2.7904	0.590486
2.80043	0.589336
2.81047	0.588209
2.82051	0.587105
2.83055	0.586024
2.84058	0.584966
2.85062	0.583931
2.86066	0.582919
2.8707	0.581931
2.88073	0.580966
2.89077	0.580025
2.90081	0.579107
2.91085	0.578213
2.92088	0.577343
2.93092	0.576496
2.94096	0.575673
2.951	0.574875
2.96103	0.5741
2.97107	0.573349
2.98111	0.572623
2.99115	0.57192
3.00118	0.571242
3.01122	0.570589
3.02126	0.569959
3.0313	0.569354
3.04133	0.568774
3.05137	0.568218
3.06141	0.567686
3.07145	0.567179
3.08148	0.566697
3.09152	0.56624
3.10156	0.565807
3.1116	0.565399
3.12163	0.565016
3.13167	0.564657
3.14171	0.564324
3.15175	0.564015
3.16178	0.563731
3.17182	0.563472
3.18186	0.563239
3.1919	0.56303
3.20193	0.562846
3.21197	0.562687
3.22201	0.562553
3.23205	0.562444
3.24208	0.56236
3.25212	0.562302
3.26216	0.562268
3.2722	0.562259
3.28223	0.562276
3.29227	0.562317
3.30231	0.562383
3.31235	0.562475
3.32238	0.562592
3.33242	0.562733
3.34246	0.5629
3.3525	0.563091
3.36253	0.563308
3.37257	0.563549
3.38261	0.563816
3.39265	0.564107
3.40268	0.564424
3.41272	0.564765
3.42276	0.565131
3.4328	0.565522
3.44283	0.565937
3.45287	0.566378
3.46291	0.566843
3.47295	0.567333
3.48298	0.567847
3.49302	0.568386
3.50306	0.56895
3.5131	0.569538
3.52313	0.57015
3.53317	0.570787
3.54321	0.571448
3.55325	0.572134
3.56328	0.572844
3.57332	0.573578
3.58336	0.574336
3.5934	0.575118
3.60343	0.575924
3.61347	0.576754
3.62351	0.577608
3.63355	0.578485
3.64358	0.579387
3.65362	0.580312
3.66366	0.58126
3.6737	0.582232
3.68373	0.583228
3.69377	0.584247
3.70381	0.585289
3.71385	0.586354
3.72388	0.587442
3.73392	0.588553
3.74396	0.589687
3.754	0.590844
3.76403	0.592023
3.77407	0.593226
3.78411	0.59445
3.79415	0.595697
3.80418	0.596966
3.81422	0.598258
3.82426	0.599571
3.8343	0.600907
3.84433	0.602264
3.85437	0.603643
3.86441	0.605044
3.87445	0.606466
3.88448	0.607909
3.89452	0.609374
3.90456	0.61086
3.9146	0.612367
3.92463	0.613895
3.93467	0.615444
3.94471	0.617013
3.95475	0.618603
3.96478	0.620213
3.97482	0.621844
3.98486	0.623494
3.9949	0.625165
4.00493	0.626855
4.01497	0.628565
4.02501	0.630295
4.03505	0.632044
4.04508	0.633813
4.05512	0.6356
4.06516	0.637407
4.0752	0.639232
4.08523	0.641076
4.09527	0.642938
4.10531	0.644819
4.11535	0.646718
4.12538	0.648635
4.13542	0.65057
4.14546	0.652523
4.1555	0.654494
4.16553	0.656481
4.17557	0.658486
4.18561	0.660508
4.19565	0.662547
4.20568	0.664603
4.21572	0.666675
4.22576	0.668764
4.2358	0.670869
4.24583	0.67299
4.25587	0.675127
4.26591	0.677279
4.27595	0.679448
4.28598	0.681631
4.29602	0.68383
4.30606	0.686043
4.3161	0.688272
4.32613	0.690515
4.33617	0.692772
4.34621	0.695044
4.35625	0.697329
4.36628	0.699629
4.37632	0.701942
4.38636	0.704269
4.3964	0.706609
4.40643	0.708962
4.41647	0.711328
4.42651	0.713707
4.43655	0.716098
4.44658	0.718501
4.45662	0.720917
4.46666	0.723344
4.4767	0.725784
4.48673	0.728234
4.49677	0.730696
4.50681	0.73317
4.51685	0.735654
4.52688	0.738148
4.53692	0.740653
4.54696	0.743169
4.557	0.745694
4.56703	0.74823
4.57707	0.750775
4.58711	0.753329
4.59715	0.755893
4.60718	0.758466
4.61722	0.761047
4.62726	0.763637
4.6373	0.766236
4.64733	0.768842
4.65737	0.771457
4.66741	0.774079
4.67745	0.776709
4.68748	0.779346
4.69752	0.78199
4.70756	0.784641
4.7176	0.787298
4.72763	0.789962
4.73767	0.792632
4.74771	0.795308
4.75775	0.79799
4.76778	0.800678
4.77782	0.80337
4.78786	0.806068
4.7979	0.808771
4.80793	0.811478
4.81797	0.814189
4.82801	0.816905
4.83805	0.819625
4.84808	0.822349
4.85812	0.825076
4.86816	0.827806
4.8782	0.830539
4.88823	0.833275
4.89827	0.836014
4.90831	0.838755
4.91835	0.841498
4.92838	0.844244
4.93842	0.84699
4.94846	0.849739
4.9585	0.852488
4.96853	0.855239
4.97857	0.85799
4.98861	0.860742
4.99865	0.863494
5.00868	0.866247
5.01872	0.868999
5.02876	0.87175
5.0388	0.874502
5.04884	0.877252
5.05887	0.880001
5.06891	0.882749
5.07895	0.885496
5.08899	0.888241
5.09902	0.890984
5.10906	0.893724
5.1191	0.896463
5.12914	0.899198
5.13917	0.901931
5.14921	0.904661
5.15925	0.907387
5.16929	0.91011
5.17932	0.912829
5.18936	0.915544
5.1994	0.918255
5.20944	0.920961
5.21947	0.923663
5.22951	0.92636
5.23955	0.929051
5.24959	0.931738
5.25962	0.934419
5.26966	0.937094
5.2797	0.939763
5.28974	0.942426
5.29977	0.945082
5.30981	0.947732
5.31985	0.950374
5.32989	0.95301
5.33992	0.955638
5.34996	0.958259
5.36	0.960872
5.36003	0.963468
5.37004	0.963477
5.38007	0.966074
5.39011	0.968663
5.40015	0.971243
5.41019	0.973814
5.42022	0.976376
5.43026	0.978928
5.4403	0.981472
5.45034	0.984005
5.46037	0.986529
5.47041	0.989042
5.48045	0.991546
5.49049	0.994038
5.50052	0.99652
5.51056	0.998991
5.5206	1.00145
5.53064	1.0039
5.54067	1.00634
5.55071	1.00876
5.56075	1.01118
5.57079	1.01358
5.58082	1.01597
5.59086	1.01834
5.6009	1.02071
5.61094	1.02306
5.62097	1.02539
5.63101	1.02772
5.64105	1.03003
5.65109	1.03233
5.66112	1.03461
5.67116	1.03688
5.6812	1.03913
5.69124	1.04137
5.70127	1.0436
5.71131	1.04581
5.72135	1.04801
5.73139	1.05019
5.74142	1.05235
5.75146	1.0545
5.7615	1.05664
5.77154	1.05875
5.78157	1.06086
5.79161	1.06294
5.80165	1.06501
5.81169	1.06706
5.82172	1.0691
5.83176	1.07112
5.8418	1.07312
5.85184	1.0751
5.86187	1.07707
5.87191	1.07902
5.88195	1.08095
5.89199	1.08287
5.90202	1.08476
5.91206	1.08664
5.9221	1.0885
5.93214	1.09034
5.94217	1.09216
5.95221	1.09396
5.96225	1.09575
5.97229	1.09751
5.98232	1.09926
5.99236	1.10098
6.0024	1.10269
6.01244	1.10438
6.02247	1.10604
6.03251	1.10769
6.04255	1.10932
6.05259	1.11092
6.06262	1.11251
6.07266	1.11408
6.0827	1.11562
6.09274	1.11714
6.10277	1.11865
6.11281	1.12013
6.12285	1.12159
6.13289	1.12303
6.14292	1.12445
6.15296	1.12585
6.163	1.12722
6.17304	1.12857
6.18307	1.1299
6.19311	1.13121
6.20315	1.1325
6.21319	1.13377
6.22322	1.13501
6.23326	1.13623
6.2433	1.13743
6.25334	1.1386
6.26337	1.13976
6.27341	1.14089
6.28345	1.14199
6.29349	1.14308
6.30352	1.14414
6.31356	1.14518
6.3236	1.14619
6.33364	1.14718
6.34367	1.14815
6.35371	1.14909
6.36375	1.15001
6.37379	1.15091
6.38382	1.15178
6.39386	1.15263
6.4039	1.15346
6.41394	1.15426
6.42397	1.15504
6.43401	1.15579
6.44405	1.15652
6.45409	1.15723
6.46412	1.15791
6.47416	1.15856
6.4842	1.1592
6.49424	1.1598
6.50427	1.16039
6.51431	1.16095
6.52435	1.16148
6.53439	1.16199
6.54442	1.16248
6.55446	1.16294
6.5645	1.16337
6.57454	1.16378
6.58457	1.16417
6.59461	1.16453
6.60465	1.16487
6.61469	1.16518
6.62472	1.16547
6.63476	1.16573
6.6448	1.16597
6.65484	1.16618
6.66487	1.16636
6.67491	1.16653
6.68495	1.16666
6.69499	1.16678
6.70502	1.16686
6.71506	1.16692
6.7251	1.16696
6.73514	1.16697
6.74517	1.16696
6.75521	1.16692
6.76525	1.16686
6.77529	1.16677
6.78532	1.16666
6.79536	1.16652
6.8054	1.16635
6.81544	1.16617
6.82547	1.16595
6.83551	1.16571
6.84555	1.16545
6.85559	1.16516
6.86562	1.16485
6.87566	1.16451
6.8857	1.16415
6.89574	1.16376
6.90577	1.16335
6.91581	1.16291
6.92585	1.16245
6.93589	1.16196
6.94592	1.16145
6.95596	1.16091
6.966	1.16035
6.97604	1.15977
6.98607	1.15916
6.99611	1.15852
7.00615	1.15787
7.01619	1.15718
7.02622	1.15648
7.03626	1.15575
7.0463	1.15499
7.05634	1.15421
7.06637	1.15341
7.07641	1.15258
7.08645	1.15173
7.09649	1.15085
7.10652	1.14996
7.11656	1.14903
7.1266	1.14809
7.13664	1.14712
7.14667	1.14613
7.15671	1.14511
7.16675	1.14407
7.17679	1.14301
7.18682	1.14192
7.19686	1.14082
7.2069	1.13968
7.21694	1.13853
7.22697	1.13735
7.23701	1.13615
7.24705	1.13493
7.25709	1.13369
7.26712	1.13242
7.27716	1.13113
7.2872	1.12982
7.29724	1.12849
7.30727	1.12714
7.31731	1.12576
7.32735	1.12436
7.33739	1.12294
7.34742	1.1215
7.35746	1.12004
7.3675	1.11855
7.37754	1.11705
7.38757	1.11552
7.39761	1.11398
7.40765	1.11241
7.41769	1.11082
7.42772	1.10922
7.43776	1.10759
7.4478	1.10594
7.45784	1.10427
7.46787	1.10258
7.47791	1.10088
7.48795	1.09915
7.49799	1.0974
7.50802	1.09564
7.51806	1.09385
7.5281	1.09205
7.53814	1.09022
7.54817	1.08838
7.55821	1.08652
7.56825	1.08464
7.57829	1.08275
7.58832	1.08083
7.59836	1.0789
7.6084	1.07695
7.61844	1.07498
7.62847	1.07299
7.63851	1.07099
7.64855	1.06897
7.65859	1.06694
7.66862	1.06488
7.67866	1.06281
7.6887	1.06072
7.69874	1.05862
7.70877	1.0565
7.71881	1.05437
7.72885	1.05222
7.73889	1.05005
7.74892	1.04787
7.75896	1.04567
7.769	1.04346
7.77904	1.04123
7.78907	1.03899
7.79911	1.03674
7.80915	1.03447
7.81919	1.03218
7.82922	1.02989
7.83926	1.02757
7.8493	1.02525
7.85934	1.02291
7.86937	1.02056
7.87941	1.01819
7.88945	1.01582
7.89949	1.01343
7.90952	1.01103
7.91956	1.00861
7.9296	1.00619
7.93964	1.00375
7.94967	1.0013
7.95971	0.998838
7.96975	0.996366
7.97979	0.993883
7.98982	0.99139
7.99986	0.988886
8.0099	0.986372
8.01994	0.983847
8.02997	0.981313
8.03001	0.978779
8.04001	0.978769
8.05005	0.976216
8.06009	0.973654
8.07013	0.971082
8.08016	0.968502
8.0902	0.965913
8.10024	0.963315
8.11028	0.96071
8.12031	0.958096
8.13035	0.955475
8.14039	0.952846
8.15043	0.95021
8.16046	0.947567
8.1705	0.944916
8.18054	0.94226
8.19058	0.939596
8.20061	0.936927
8.21065	0.934252
8.22069	0.931571
8.23073	0.928884
8.24076	0.926192
8.2508	0.923495
8.26084	0.920793
8.27088	0.918086
8.28091	0.915375
8.29095	0.91266
8.30099	0.90994
8.31103	0.907217
8.32106	0.904491
8.3311	0.901761
8.34114	0.899028
8.35118	0.896292
8.36121	0.893554
8.37125	0.890813
8.38129	0.88807
8.39133	0.885325
8.40136	0.882578
8.4114	0.87983
8.42144	0.877081
8.43148	0.87433
8.44151	0.871579
8.45155	0.868827
8.46159	0.866075
8.47163	0.863323
8.48166	0.86057
8.4917	0.857819
8.50174	0.855067
8.51178	0.852317
8.52181	0.849567
8.53185	0.846819
8.54189	0.844072
8.55193	0.841327
8.56196	0.838584
8.572	0.835843
8.58204	0.833105
8.59208	0.830369
8.60211	0.827635
8.61215	0.824905
8.62219	0.822179
8.63223	0.819455
8.64226	0.816736
8.6523	0.81402
8.66234	0.811309
8.67238	0.808602
8.68241	0.8059
8.69245	0.803202
8.70249	0.80051
8.71253	0.797823
8.72256	0.795141
8.7326	0.792466
8.74264	0.789796
8.75268	0.787132
8.76271	0.784475
8.77275	0.781825
8.78279	0.779181
8.79283	0.776544
8.80286	0.773915
8.8129	0.771293
8.82294	0.768679
8.83298	0.766073
8.84301	0.763475
8.85305	0.760886
8.86309	0.758305
8.87313	0.755733
8.88316	0.75317
8.8932	0.750616
8.90324	0.748071
8.91328	0.745537
8.92331	0.743012
8.93335	0.740497
8.94339	0.737992
8.95343	0.735498
8.96346	0.733015
8.9735	0.730543
8.98354	0.728081
8.99358	0.725631
9.00361	0.723193
9.01365	0.720766
9.02369	0.718351
9.03373	0.715948
9.04376	0.713558
9.0538	0.71118
9.06384	0.708815
9.07388	0.706463
9.08391	0.704123
9.09395	0.701797
9.10399	0.699485
9.11403	0.697186
9.12406	0.694902
9.1341	0.692631
9.14414	0.690374
9.15418	0.688132
9.16421	0.685905
9.17425	0.683692
9.18429	0.681494
9.19433	0.679312
9.20436	0.677145
9.2144	0.674993
9.22444	0.672857
9.23448	0.670737
9.24451	0.668633
9.25455	0.666546
9.26459	0.664474
9.27463	0.66242
9.28466	0.660382
9.2947	0.658361
9.30474	0.656357
9.31478	0.65437
9.32481	0.652401
9.33485	0.650449
9.34489	0.648515
9.35493	0.646599
9.36496	0.644701
9.375	0.642822
9.38504	0.64096
9.39508	0.639118
9.40511	0.637293
9.41515	0.635488
9.42519	0.633702
9.43523	0.631935
9.44526	0.630187
9.4553	0.628458
9.46534	0.626749
9.47538	0.62506
9.48541	0.623391
9.49545	0.621741
9.50549	0.620112
9.51553	0.618503
9.52556	0.616915
9.5356	0.615347
9.54564	0.613799
9.55568	0.612273
9.56571	0.610767
9.57575	0.609282
9.58579	0.607819
9.59583	0.606377
9.60586	0.604956
9.6159	0.603556
9.62594	0.602179
9.63598	0.600823
9.64601	0.599489
9.65605	0.598177
9.66609	0.596887
9.67613	0.595619
9.68616	0.594373
9.6962	0.59315
9.70624	0.591949
9.71628	0.590771
9.72631	0.589616
9.73635	0.588483
9.74639	0.587373
9.75643	0.586287
9.76646	0.585223
9.7765	0.584182
9.78654	0.583165
9.79658	0.582171
9.80661	0.581201
9.81665	0.580253
9.82669	0.57933
9.83673	0.57843
9.84676	0.577554
9.8568	0.576701
9.86684	0.575873
9.87688	0.575068
9.88691	0.574288
9.89695	0.573531
9.90699	0.572799
9.91703	0.57209
9.92706	0.571406
9.9371	0.570747
9.94714	0.570111
9.95718	0.5695
9.96721	0.568914
9.97725	0.568352
9.98729	0.567814
9.99733	0.567301
10.0074	0.566813
10.0174	0.56635
10.0274	0.565911
10.0375	0.565497
10.0475	0.565107
10.0576	0.564743
10.0676	0.564403
10.0776	0.564088
10.0877	0.563799
10.0977	0.563534
10.1077	0.563294
10.1178	0.563079
10.1278	0.562889
10.1379	0.562724
10.1479	0.562584
10.1579	0.562469
10.168	0.562379
10.178	0.562314
10.188	0.562274
10.1981	0.562259
10.2081	0.562269
10.2182	0.562304
10.2282	0.562365
10.2382	0.56245
10.2483	0.562561
10.2583	0.562696
10.2683	0.562857
10.2784	0.563042
10.2884	0.563252
10.2985	0.563488
10.3085	0.563748
10.3185	0.564034
10.3286	0.564344
10.3386	0.564679
10.3486	0.565039
10.3587	0.565424
10.3687	0.565833
10.3788	0.566267
10.3888	0.566727
10.3988	0.56721
10.4089	0.567719
10.4189	0.568252
10.4289	0.568809
10.439	0.569391
10.449	0.569998
10.4591	0.570629
10.4691	0.571284
10.4791	0.571963
10.4892	0.572667
10.4992	0.573395
10.5092	0.574147
10.5193	0.574924
10.5293	0.575724
10.5394	0.576548
10.5494	0.577396
10.5594	0.578268
10.5695	0.579163
10.5795	0.580083
10.5895	0.581025
10.5996	0.581992
10.6096	0.582981
10.6197	0.583995
10.6297	0.585031
10.6397	0.58609
10.6498	0.587173
10.6598	0.588278
10.6698	0.589407
10.6799	0.590558
10.6899	0.591732
10.7	0.592929
10.71	0.594148
10.71	0.595384
10.72	0.595389
10.7301	0.596653
10.7401	0.597939
10.7501	0.599247
10.7602	0.600577
10.7702	0.601929
10.7803	0.603303
10.7903	0.604698
10.8003	0.606115
10.8104	0.607553
10.8204	0.609013
10.8304	0.610494
10.8405	0.611996
10.8505	0.613518
10.8606	0.615062
10.8706	0.616626
10.8806	0.618211
10.8907	0.619816
10.9007	0.621442
10.9107	0.623087
10.9208	0.624753
10.9308	0.626439
10.9409	0.628144
10.9509	0.629869
10.9609	0.631613
10.971	0.633377
10.981	0.63516
10.991	0.636962
11.0011	0.638782
11.0111	0.640622
11.0212	0.64248
11.0312	0.644356
11.0412	0.646251
11.0513	0.648163
11.0613	0.650094
11.0713	0.652042
11.0814	0.654009
11.0914	0.655992
11.1015	0.657993
11.1115	0.660011
11.1215	0.662046
11.1316	0.664097
11.1416	0.666165
11.1516	0.66825
11.1617	0.670351
11.1717	0.672468
11.1818	0.674601
11.1918	0.67675
11.2018	0.678914
11.2119	0.681094
11.2219	0.683289
11.2319	0.685499
11.242	0.687723
11.252	0.689963
11.2621	0.692217
11.2721	0.694485
11.2821	0.696767
11.2922	0.699063
11.3022	0.701373
11.3122	0.703697
11.3223	0.706033
11.3323	0.708383
11.3424	0.710746
11.3524	0.713122
11.3624	0.71551
11.3725	0.71791
11.3825	0.720323
11.3925	0.722748
11.4026	0.725184
11.4126	0.727632
11.4227	0.730091
11.4327	0.732562
11.4427	0.735043
11.4528	0.737535
11.4628	0.740038
11.4728	0.742551
11.4829	0.745074
11.4929	0.747607
11.503	0.750149
11.513	0.752702
11.523	0.755263
11.5331	0.757834
11.5431	0.760413
11.5531	0.763001
11.5632	0.765597
11.5732	0.768202
11.5833	0.770814
11.5933	0.773435
11.6033	0.776063
11.6134	0.778698
11.6234	0.78134
11.6334	0.78399
11.6435	0.786646
11.6535	0.789308
11.6636	0.791977
11.6736	0.794651
11.6836	0.797332
11.6937	0.800018
11.7037	0.802709
11.7137	0.805406
11.7238	0.808107
11.7338	0.810813
11.7439	0.813524
11.7539	0.816239
11.7639	0.818957
11.774	0.82168
11.784	0.824406
11.794	0.827136
11.8041	0.829868
11.8141	0.832604
11.8242	0.835342
11.8342	0.838082
11.8442	0.840825
11.8543	0.84357
11.8643	0.846316
11.8743	0.849064
11.8844	0.851814
11.8944	0.854564
11.9045	0.857315
11.9145	0.860067
11.9245	0.862819
11.9346	0.865571
11.9446	0.868323
11.9546	0.871075
11.9647	0.873827
11.9747	0.876577
11.9848	0.879327
11.9948	0.882075
12.0048	0.884822
12.0149	0.887568
12.0249	0.890311
12.0349	0.893052
12.045	0.895791
12.055	0.898527
12.0651	0.901261
12.0751	0.903991
12.0851	0.906719
12.0952	0.909442
12.1052	0.912162
12.1152	0.914878
12.1253	0.91759
12.1353	0.920298
12.1454	0.923001
12.1554	0.925699
12.1654	0.928392
12.1755	0.931079
12.1855	0.933761
12.1955	0.936438
12.2056	0.939108
12.2156	0.941773
12.2257	0.944431
12.2357	0.947082
12.2457	0.949727
12.2558	0.952364
12.2658	0.954994
12.2758	0.957617
12.2859	0.960232
12.2959	0.962839
12.306	0.965438
12.316	0.968028
12.326	0.97061
12.3361	0.973184
12.3461	0.975748
12.3561	0.978303
12.3662	0.980848
12.3762	0.983384
12.3863	0.985911
12.3963	0.988427
12.4063	0.990932
12.4164	0.993428
12.4264	0.995912
12.4364	0.998386
12.4465	1.00085
12.4565	1.0033
12.4666	1.00574
12.4766	1.00817
12.4866	1.01058
12.4967	1.01299
12.5067	1.01538
12.5167	1.01776
12.5268	1.02013
12.5368	1.02248
12.5469	1.02482
12.5569	1.02715
12.5669	1.02946
12.577	1.03176
12.587	1.03405
12.597	1.03632
12.6071	1.03858
12.6171	1.04083
12.6272	1.04305
12.6372	1.04527
12.6472	1.04747
12.6573	1.04965
12.6673	1.05182
12.6773	1.05398
12.6874	1.05611
12.6974	1.05823
12.7075	1.06034
12.7175	1.06243
12.7275	1.0645
12.7376	1.06656
12.7476	1.0686
12.7576	1.07062
12.7677	1.07263
12.7777	1.07462
12.7878	1.07659
12.7978	1.07854
12.8078	1.08048
12.8179	1.0824
12.8279	1.0843
12.8379	1.08618
12.848	1.08804
12.858	1.08989
12.8681	1.09172
12.8781	1.09352
12.8881	1.09531
12.8982	1.09708
12.9082	1.09883
12.9182	1.10056
12.9283	1.10227
12.9383	1.10397
12.9484	1.10564
12.9584	1.10729
12.9684	1.10892
12.9785	1.11053
12.9885	1.11212
12.9985	1.11369
13.0086	1.11524
13.0186	1.11677
13.0287	1.11828
13.0387	1.11977
13.0487	1.12123
13.0588	1.12268
13.0688	1.1241
13.0788	1.1255
13.0889	1.12688
13.0989	1.12824
13.109	1.12958
13.119	1.1309
13.129	1.13219
13.1391	1.13346
13.1491	1.13471
13.1591	1.13593
13.1692	1.13714
13.1792	1.13832
13.1893	1.13948
13.1993	1.14061
13.2093	1.14172
13.2194	1.14281
13.2294	1.14388
13.2394	1.14492
13.2495	1.14594
13.2595	1.14694
13.2696	1.14791
13.2796	1.14886
13.2896	1.14979
13.2997	1.15069
13.3097	1.15157
13.3197	1.15243
13.3298	1.15326
13.3398	1.15407
13.3499	1.15485
13.3599	1.15561
13.3699	1.15634
13.38	1.15706
13.38	1.15774
13.39	1.15774
13.4	1.15841
13.4101	1.15904
13.4201	1.15966
13.4302	1.16025
13.4402	1.16081
13.4502	1.16135
13.4603	1.16187
13.4703	1.16236
13.4803	1.16283
13.4904	1.16327
13.5004	1.16369
13.5105	1.16408
13.5205	1.16445
13.5305	1.16479
13.5406	1.16511
13.5506	1.1654
13.5606	1.16567
13.5707	1.16591
13.5807	1.16613
13.5908	1.16632
13.6008	1.16649
13.6108	1.16663
13.6209	1.16675
13.6309	1.16684
13.6409	1.16691
13.651	1.16695
13.661	1.16697
13.6711	1.16696
13.6811	1.16693
13.6911	1.16688
13.7012	1.16679
13.7112	1.16669
13.7212	1.16655
13.7313	1.1664
13.7413	1.16621
13.7514	1.16601
13.7614	1.16577
13.7714	1.16552
13.7815	1.16523
13.7915	1.16493
13.8015	1.1646
13.8116	1.16424
13.8216	1.16386
13.8317	1.16345
13.8417	1.16302
13.8517	1.16256
13.8618	1.16208
13.8718	1.16158
13.8818	1.16105
13.8919	1.16049
13.9019	1.15991
13.912	1.15931
13.922	1.15868
13.932	1.15803
13.9421	1.15735
13.9521	1.15665
13.9621	1.15593
13.9722	1.15518
13.9822	1.1544
13.9923	1.15361
14.0023	1.15279
14.0123	1.15194
14.0224	1.15107
14.0324	1.15018
14.0424	1.14926
14.0525	1.14832
14.0625	1.14736
14.0726	1.14637
14.0826	1.14536
14.0926	1.14433
14.1027	1.14327
14.1127	1.14219
14.1227	1.14109
14.1328	1.13996
14.1428	1.13882
14.1529	1.13764
14.1629	1.13645
14.1729	1.13523
14.183	1.134
14.193	1.13273
14.203	1.13145
14.2131	1.13015
14.2231	1.12882
14.2332	1.12747
14.2432	1.1261
14.2532	1.12471
14.2633	1.12329
14.2733	1.12186
14.2833	1.1204
14.2934	1.11892
14.3034	1.11742
14.3135	1.1159
14.3235	1.11436
14.3335	1.1128
14.3436	1.11122
14.3536	1.10961
14.3636	1.10799
14.3737	1.10635
14.3837	1.10468
14.3938	1.103
14.4038	1.1013
14.4138	1.09958
14.4239	1.09783
14.4339	1.09607
14.4439	1.09429
14.454	1.09249
14.464	1.09067
14.4741	1.08884
14.4841	1.08698
14.4941	1.08511
14.5042	1.08321
14.5142	1.0813
14.5242	1.07938
14.5343	1.07743
14.5443	1.07547
14.5544	1.07348
14.5644	1.07149
14.5744	1.06947
14.5845	1.06744
14.5945	1.06539
14.6045	1.06332
14.6146	1.06124
14.6246	1.05914
14.6347	1.05702
14.6447	1.05489
14.6547	1.05275
14.6648	1.05058
14.6748	1.04841
14.6848	1.04621
14.6949	1.044
14.7049	1.04178
14.715	1.03954
14.725	1.03729
14.735	1.03503
14.7451	1.03274
14.7551	1.03045
14.7651	1.02814
14.7752	1.02582
14.7852	1.02349
14.7953	1.02114
14.8053	1.01878
14.8153	1.0164
14.8254	1.01402
14.8354	1.01162
14.8454	1.0092
14.8555	1.00678
14.8655	1.00435
14.8756	1.0019
14.8856	0.999442
14.8956	0.996973
14.9057	0.994493
14.9157	0.992003
14.9257	0.989501
14.9358	0.98699
14.9458	0.984468
14.9559	0.981936
14.9659	0.979394
14.9759	0.976843
14.986	0.974283
14.996	0.971714
15.006	0.969135
15.0161	0.966549
15.0261	0.963953
15.0362	0.96135
15.0462	0.958738
15.0562	0.956119
15.0663	0.953492
15.0763	0.950857
15.0863	0.948216
15.0964	0.945567
15.1064	0.942912
15.1165	0.94025
15.1265	0.937583
15.1365	0.934909
15.1466	0.932229
15.1566	0.929544
15.1666	0.926853
15.1767	0.924157
15.1867	0.921456
15.1968	0.91875
15.2068	0.91604
15.2168	0.913326
15.2269	0.910608
15.2369	0.907886
15.2469	0.90516
15.257	0.902431
15.267	0.899699
15.2771	0.896964
15.2871	0.894226
15.2971	0.891485
15.3072	0.888743
15.3172	0.885998
15.3272	0.883252
15.3373	0.880504
15.3473	0.877755
15.3574	0.875005
15.3674	0.872254
15.3774	0.869502
15.3875	0.86675
15.3975	0.863998
15.4075	0.861246
15.4176	0.858494
15.4276	0.855742
15.4377	0.852992
15.4477	0.850242
15.4577	0.847493
15.4678	0.844746
15.4778	0.842001
15.4878	0.839257
15.4979	0.836515
15.5079	0.833776
15.518	0.83104
15.528	0.828306
15.538	0.825575
15.5481	0.822847
15.5581	0.820123
15.5681	0.817403
15.5782	0.814686
15.5882	0.811974
15.5983	0.809266
15.6083	0.806562
15.6183	0.803864
15.6284	0.80117
15.6384	0.798482
15.6484	0.795799
15.6585	0.793122
15.6685	0.79045
15.6786	0.787785
15.6886	0.785126
15.6986	0.782474
15.7087	0.779829
15.7187	0.777191
15.7287	0.77456
15.7388	0.771936
15.7488	0.76932
15.7589	0.766712
15.7689	0.764112
15.7789	0.76152
15.789	0.758937
15.799	0.756363
15.809	0.753798
15.8191	0.751242
15.8291	0.748695
15.8392	0.746158
15.8492	0.74363
15.8592	0.741113
15.8693	0.738606
15.8793	0.736109
15.8893	0.733623
15.8994	0.731148
15.9094	0.728684
15.9195	0.726231
15.9295	0.72379
15.9395	0.72136
15.9496	0.718942
15.9596	0.716537
15.9696	0.714143
15.9797	0.711762
15.9897	0.709394
15.9998	0.707038
16.0098	0.704696
16.0198	0.702367
16.0299	0.700051
16.0399	0.697749
16.0499	0.695461
16.06	0.693187
16.06	0.690935
16.07	0.690927
16.0801	0.688681
16.0901	0.68645
16.1001	0.684234
16.1102	0.682032
16.1202	0.679846
16.1302	0.677675
16.1403	0.67552
16.1503	0.67338
16.1604	0.671256
16.1704	0.669148
16.1804	0.667056
16.1905	0.664981
16.2005	0.662922
16.2105	0.66088
16.2206	0.658855
16.2306	0.656847
16.2407	0.654856
16.2507	0.652882
16.2607	0.650926
16.2708	0.648988
16.2808	0.647068
16.2908	0.645165
16.3009	0.643281
16.3109	0.641415
16.321	0.639568
16.331	0.637739
16.341	0.635929
16.3511	0.634138
16.3611	0.632366
16.3711	0.630614
16.3812	0.628881
16.3912	0.627167
16.4013	0.625473
16.4113	0.623799
16.4213	0.622144
16.4314	0.62051
16.4414	0.618896
16.4514	0.617303
16.4615	0.615729
16.4715	0.614177
16.4816	0.612645
16.4916	0.611134
16.5016	0.609645
16.5117	0.608176
16.5217	0.606728
16.5317	0.605302
16.5418	0.603898
16.5518	0.602515
16.5619	0.601153
16.5719	0.599814
16.5819	0.598496
16.592	0.597201
16.602	0.595928
16.612	0.594677
16.6221	0.593448
16.6321	0.592242
16.6422	0.591058
16.6522	0.589897
16.6622	0.588759
16.6723	0.587644
16.6823	0.586551
16.6923	0.585482
16.7024	0.584436
16.7124	0.583413
16.7225	0.582413
16.7325	0.581437
16.7425	0.580484
16.7526	0.579554
16.7626	0.578649
16.7726	0.577767
16.7827	0.576908
16.7927	0.576074
16.8028	0.575264
16.8128	0.574477
16.8228	0.573715
16.8329	0.572976
16.8429	0.572262
16.8529	0.571572
16.863	0.570906
16.873	0.570265
16.8831	0.569648
16.8931	0.569055
16.9031	0.568487
16.9132	0.567944
16.9232	0.567425
16.9332	0.566931
16.9433	0.566461
16.9533	0.566016
16.9634	0.565596
16.9734	0.565201
16.9834	0.56483
16.9935	0.564484
17.0035	0.564163
17.0135	0.563867
17.0236	0.563596
17.0336	0.56335
17.0437	0.563129
17.0537	0.562933
17.0637	0.562762
17.0738	0.562616
17.0838	0.562494
17.0938	0.562398
17.1039	0.562327
17.1139	0.562281
17.124	0.56226
17.134	0.562264
17.144	0.562293
17.1541	0.562348
17.1641	0.562427
17.1741	0.562531
17.1842	0.562661
17.1942	0.562815
17.2043	0.562994
17.2143	0.563198
17.2243	0.563428
17.2344	0.563682
17.2444	0.563961
17.2544	0.564265
17.2645	0.564594
17.2745	0.564948
17.2846	0.565327
17.2946	0.56573
17.3046	0.566159
17.3147	0.566612
17.3247	0.567089
17.3347	0.567592
17.3448	0.568119
17.3548	0.56867
17.3649	0.569246
17.3749	0.569847
17.3849	0.570472
17.395	0.571121
17.405	0.571794
17.415	0.572492
17.4251	0.573214
17.4351	0.573961
17.4452	0.574731
17.4552	0.575525
17.4652	0.576344
17.4753	0.577186
17.4853	0.578052
17.4953	0.578942
17.5054	0.579855
17.5154	0.580792
17.5255	0.581753
17.5355	0.582736
17.5455	0.583744
17.5556	0.584774
17.5656	0.585828
17.5756	0.586905
17.5857	0.588005
17.5957	0.589128
17.6058	0.590273
17.6158	0.591442
17.6258	0.592633
17.6359	0.593846
17.6459	0.595082
17.6559	0.596341
17.666	0.597621
17.676	0.598924
17.6861	0.600249
17.6961	0.601595
17.7061	0.602964
17.7162	0.604354
17.7262	0.605765
17.7362	0.607198
17.7463	0.608653
17.7563	0.610128
17.7664	0.611625
17.7764	0.613143
17.7864	0.614681
17.7965	0.616241
17.8065	0.61782
17.8165	0.619421
17.8266	0.621041
17.8366	0.622682
17.8467	0.624343
17.8567	0.626023
17.8667	0.627724
17.8768	0.629444
17.8868	0.631184
17.8968	0.632942
17.9069	0.634721
17.9169	0.636518
17.927	0.638334
17.937	0.640169
17.947	0.642022
17.9571	0.643894
17.9671	0.645784
17.9771	0.647692
17.9872	0.649619
17.9972	0.651563
18.0073	0.653525
18.0173	0.655504
18.0273	0.6575
18.0374	0.659514
18.0474	0.661545
18.0574	0.663592
18.0675	0.665656
18.0775	0.667737
18.0876	0.669834
18.0976	0.671947
18.1076	0.674076
18.1177	0.676221
18.1277	0.678382
18.1377	0.680558
18.1478	0.682749
18.1578	0.684955
18.1679	0.687176
18.1779	0.689412
18.1879	0.691662
18.198	0.693927
18.208	0.696206
18.218	0.698499
18.2281	0.700805
18.2381	0.703125
18.2482	0.705459
18.2582	0.707806
18.2682	0.710165
18.2783	0.712538
18.2883	0.714923
18.2983	0.71732
18.3084	0.71973
18.3184	0.722152
18.3285	0.724585
18.3385	0.72703
18.3485	0.729487
18.3586	0.731955
18.3686	0.734433
18.3786	0.736923
18.3887	0.739423
18.3987	0.741933
18.4088	0.744454
18.4188	0.746984
18.4288	0.749525
18.4389	0.752075
18.4489	0.754634
18.4589	0.757202
18.469	0.759779
18.479	0.762365
18.4891	0.764959
18.4991	0.767562
18.5091	0.770173
18.5192	0.772791
18.5292	0.775417
18.5392	0.778051
18.5493	0.780691
18.5593	0.783339
18.5694	0.785993
18.5794	0.788654
18.5894	0.791321
18.5995	0.793994
18.6095	0.796674
18.6195	0.799358
18.6296	0.802048
18.6396	0.804744
18.6497	0.807444
18.6597	0.810149
18.6697	0.812858
18.6798	0.815572
18.6898	0.81829
18.6998	0.821012
18.7099	0.823737
18.7199	0.826466
18.73	0.829198
18.74	0.831932
18.74	0.83466
18.75	0.83467
18.7601	0.83741
18.7701	0.840152
18.7801	0.842896
18.7902	0.845642
18.8002	0.84839
18.8103	0.851139
18.8203	0.853889
18.8303	0.85664
18.8404	0.859392
18.8504	0.862144
18.8604	0.864896
18.8705	0.867648
18.8805	0.8704
18.8906	0.873152
18.9006	0.875903
18.9106	0.878652
18.9207	0.881401
18.9307	0.884148
18.9407	0.886894
18.9508	0.889638
18.9608	0.89238
18.9709	0.895119
18.9809	0.897856
18.9909	0.90059
19.001	0.903322
19.011	0.90605
19.021	0.908774
19.0311	0.911495
19.0411	0.914212
19.0512	0.916925
19.0612	0.919634
19.0712	0.922338
19.0813	0.925037
19.0913	0.927731
19.1013	0.93042
19.1114	0.933104
19.1214	0.935782
19.1315	0.938454
19.1415	0.94112
19.1515	0.943779
19.1616	0.946432
19.1716	0.949078
19.1816	0.951718
19.1917	0.95435
19.2017	0.956974
19.2118	0.959591
19.2218	0.9622
19.2318	0.964801
19.2419	0.967394
19.2519	0.969978
19.2619	0.972553
19.272	0.97512
19.282	0.977677
19.2921	0.980225
19.3021	0.982763
19.3121	0.985292
19.3222	0.98781
19.3322	0.990319
19.3422	0.992816
19.3523	0.995304
19.3623	0.99778
19.3724	1.00025
19.3824	1.0027
19.3924	1.00514
19.4025	1.00757
19.4125	1.00999
19.4225	1.0124
19.4326	1.0148
19.4426	1.01718
19.4527	1.01955
19.4627	1.0219
19.4727	1.02425
19.4828	1.02658
19.4928	1.0289
19.5028	1.0312
19.5129	1.03349
19.5229	1.03577
19.533	1.03803
19.543	1.04028
19.553	1.04251
19.5631	1.04473
19.5731	1.04693
19.5831	1.04912
19.5932	1.05129
19.6032	1.05345
19.6133	1.05559
19.6233	1.05772
19.6333	1.05983
19.6434	1.06192
19.6534	1.064
19.6634	1.06606
19.6735	1.0681
19.6835	1.07013
19.6936	1.07214
19.7036	1.07413
19.7136	1.07611
19.7237	1.07807
19.7337	1.08001
19.7437	1.08193
19.7538	1.08383
19.7638	1.08572
19.7739	1.08759
19.7839	1.08944
19.7939	1.09127
19.804	1.09308
19.814	1.09487
19.824	1.09665
19.8341	1.0984
19.8441	1.10014
19.8542	1.10186
19.8642	1.10355
19.8742	1.10523
19.8843	1.10689
19.8943	1.10852
19.9043	1.11014
19.9144	1.11173
19.9244	1.11331
19.9345	1.11487
19.9445	1.1164
19.9545	1.11791
19.9646	1.11941
19.9746	1.12088
19.9846	1.12233
19.9947	1.12376
20.0047	1.12516
20.0148	1.12655
20.0248	1.12791
20.0348	1.12925
20.0449	1.13057
20.0549	1.13187
20.0649	1.13315
20.075	1.1344
20.085	1.13563
20.0951	1.13684
20.1051	1.13803
20.1151	1.13919
20.1252	1.14033
20.1352	1.14145
20.1452	1.14255
20.1553	1.14362
20.1653	1.14467
20.1754	1.14569
20.1854	1.1467
20.1954	1.14768
20.2055	1.14863
20.2155	1.14956
20.2255	1.15047
20.2356	1.15136
20.2456	1.15222
20.2557	1.15306
20.2657	1.15387
20.2757	1.15466
20.2858	1.15542
20.2958	1.15617
20.3058	1.15688
20.3159	1.15758
20.3259	1.15824
20.336	1.15889
20.346	1.15951
20.356	1.1601
20.3661	1.16068
20.3761	1.16122
20.3861	1.16174
20.3962	1.16224
20.4062	1.16271
20.4163	1.16316
20.4263	1.16359
20.4363	1.16398
20.4464	1.16436
20.4564	1.16471
20.4664	1.16503
20.4765	1.16533
20.4865	1.1656
20.4966	1.16585
20.5066	1.16608
20.5166	1.16628
20.5267	1.16645
20.5367	1.1666
20.5467	1.16672
20.5568	1.16682
20.5668	1.1669
20.5769	1.16695
20.5869	1.16697
20.5969	1.16697
20.607	1.16694
20.617	1.16689
20.627	1.16682
20.6371	1.16671
20.6471	1.16659
20.6572	1.16644
20.6672	1.16626
20.6772	1.16606
20.6873	1.16583
20.6973	1.16558
20.7073	1.16531
20.7174	1.165
20.7274	1.16468
20.7375	1.16433
20.7475	1.16395
20.7575	1.16355
20.7676	1.16313
20.7776	1.16268
20.7876	1.1622
20.7977	1.1617
20.8077	1.16118
20.8178	1.16063
20.8278	1.16006
20.8378	1.15946
20.8479	1.15884
20.8579	1.15819
20.8679	1.15752
20.878	1.15683
20.888	1.15611
20.8981	1.15536
20.9081	1.1546
20.9181	1.1538
20.9282	1.15299
20.9382	1.15215
20.9482	1.15129
20.9583	1.1504
20.9683	1.14949
20.9784	1.14856
20.9884	1.1476
20.9984	1.14662
21.0085	1.14561
21.0185	1.14458
21.0285	1.14353
21.0386	1.14246
21.0486	1.14136
21.0587	1.14024
21.0687	1.1391
21.0787	1.13793
21.0888	1.13675
21.0988	1.13554
21.1088	1.1343
21.1189	1.13305
21.1289	1.13177
21.139	1.13047
21.149	1.12915
21.159	1.1278
21.1691	1.12644
21.1791	1.12505
21.1891	1.12364
21.1992	1.12221
21.2092	1.12076
21.2193	1.11929
21.2293	1.11779
21.2393	1.11628
21.2494	1.11474
21.2594	1.11318
21.2694	1.11161
21.2795	1.11001
21.2895	1.10839
21.2996	1.10675
21.3096	1.10509
21.3196	1.10342
21.3297	1.10172
21.3397	1.1
21.3497	1.09826
21.3598	1.09651
21.3698	1.09473
21.3799	1.09294
21.3899	1.09112
21.3999	1.08929
21.41	1.08744
21.41	1.08558
21.42	1.08557
21.43	1.08368
21.4401	1.08177
21.4501	1.07985
21.4602	1.07791
21.4702	1.07595
21.4802	1.07397
21.4903	1.07198
21.5003	1.06997
21.5103	1.06794
21.5204	1.06589
21.5304	1.06383
21.5405	1.06175
21.5505	1.05966
21.5605	1.05754
21.5706	1.05542
21.5806	1.05327
21.5906	1.05112
21.6007	1.04894
21.6107	1.04675
21.6208	1.04455
21.6308	1.04233
21.6408	1.04009
21.6509	1.03785
21.6609	1.03558
21.6709	1.03331
21.681	1.03101
21.691	1.02871
21.7011	1.02639
21.7111	1.02406
21.7211	1.02171
21.7312	1.01936
21.7412	1.01699
21.7512	1.0146
21.7613	1.01221
21.7713	1.0098
21.7814	1.00738
21.7914	1.00495
21.8014	1.0025
21.8115	1.00005
21.8215	0.99758
21.8315	0.995103
21.8416	0.992615
21.8516	0.990116
21.8617	0.987607
21.8717	0.985087
21.8817	0.982558
21.8918	0.980019
21.9018	0.97747
21.9118	0.974912
21.9219	0.972345
21.9319	0.969769
21.942	0.967184
21.952	0.964591
21.962	0.961989
21.9721	0.959379
21.9821	0.956762
21.9921	0.954137
22.0022	0.951504
22.0122	0.948864
22.0223	0.946218
22.0323	0.943564
22.0423	0.940904
22.0524	0.938238
22.0624	0.935565
22.0724	0.932887
22.0825	0.930203
22.0925	0.927513
22.1026	0.924819
22.1126	0.922119
22.1226	0.919415
22.1327	0.916706
22.1427	0.913992
22.1527	0.911275
22.1628	0.908554
22.1728	0.905829
22.1829	0.903101
22.1929	0.900369
22.2029	0.897635
22.213	0.894898
22.223	0.892158
22.233	0.889416
22.2431	0.886672
22.2531	0.883926
22.2632	0.881179
22.2732	0.87843
22.2832	0.87568
22.2933	0.872929
22.3033	0.870177
22.3133	0.867425
22.3234	0.864673
22.3334	0.861921
22.3435	0.859169
22.3535	0.856417
22.3635	0.853666
22.3736	0.850916
22.3836	0.848167
22.3936	0.84542
22.4037	0.842674
22.4137	0.83993
22.4238	0.837188
22.4338	0.834448
22.4438	0.831711
22.4539	0.828976
22.4639	0.826245
22.4739	0.823516
22.484	0.820791
22.494	0.81807
22.5041	0.815352
22.5141	0.812639
22.5241	0.80993
22.5342	0.807225
22.5442	0.804525
22.5542	0.80183
22.5643	0.799141
22.5743	0.796456
22.5844	0.793778
22.5944	0.791105
22.6044	0.788439
22.6145	0.785778
22.6245	0.783124
22.6345	0.780477
22.6446	0.777837
22.6546	0.775204
22.6647	0.772579
22.6747	0.769961
22.6847	0.767351
22.6948	0.764749
22.7048	0.762155
22.7148	0.75957
22.7249	0.756994
22.7349	0.754426
22.745	0.751868
22.755	0.749319
22.765	0.746779
22.7751	0.744249
22.7851	0.74173
22.7951	0.73922
22.8052	0.736721
22.8152	0.734232
22.8253	0.731754
22.8353	0.729288
22.8453	0.726832
22.8554	0.724388
22.8654	0.721955
22.8754	0.719535
22.8855	0.717126
22.8955	0.714729
22.9056	0.712345
22.9156	0.709974
22.9256	0.707615
22.9357	0.70527
22.9457	0.702937
22.9557	0.700618
22.9658	0.698313
22.9758	0.696021
22.9859	0.693743
22.9959	0.69148
23.0059	0.689231
23.016	0.686996
23.026	0.684776
23.036	0.682571
23.0461	0.680381
23.0561	0.678206
23.0662	0.676047
23.0762	0.673903
23.0862	0.671776
23.0963	0.669664
23.1063	0.667568
23.1163	0.665489
23.1264	0.663426
23.1364	0.66138
23.1465	0.65935
23.1565	0.657338
23.1665	0.655343
23.1766	0.653365
23.1866	0.651405
23.1966	0.649462
23.2067	0.647537
23.2167	0.64563
23.2268	0.643742
23.2368	0.641871
23.2468	0.640019
23.2569	0.638186
23.2669	0.636372
23.2769	0.634576
23.287	0.632799
23.297	0.631042
23.3071	0.629304
23.3171	0.627585
23.3271	0.625887
23.3372	0.624207
23.3472	0.622548
23.3572	0.620909
23.3673	0.61929
23.3773	0.617692
23.3874	0.616114
23.3974	0.614556
23.4074	0.613019
23.4175	0.611503
23.4275	0.610008
23.4375	0.608534
23.4476	0.607082
23.4576	0.60565
23.4677	0.60424
23.4777	0.602852
23.4877	0.601485
23.4978	0.600141
23.5078	0.598818
23.5179	0.597517
23.5279	0.596238
23.5379	0.594981
23.548	0.593747
23.558	0.592536
23.568	0.591346
23.5781	0.59018
23.5881	0.589036
23.5982	0.587915
23.6082	0.586817
23.6182	0.585742
23.6283	0.58469
23.6383	0.583661
23.6483	0.582656
23.6584	0.581674
23.6684	0.580715
23.6785	0.57978
23.6885	0.578869
23.6985	0.577981
23.7086	0.577117
23.7186	0.576277
23.7286	0.57546
23.7387	0.574668
23.7487	0.573899
23.7588	0.573155
23.7688	0.572435
23.7788	0.571739
23.7889	0.571067
23.7989	0.57042
23.8089	0.569797
23.819	0.569199
23.829	0.568625
23.8391	0.568075
23.8491	0.56755
23.8591	0.56705
23.8692	0.566574
23.8792	0.566123
23.8892	0.565697
23.8993	0.565295
23.9093	0.564919
23.9194	0.564567
23.9294	0.56424
23.9394	0.563938
23.9495	0.563661
23.9595	0.563408
23.9695	0.563181
23.9796	0.562979
23.9896	0.562801
23.9997	0.562649
24.0097	0.562522
24.0197	0.56242
24.0298	0.562342
24.0398	0.56229
24.0498	0.562263
24.0599	0.562261
24.0699	0.562284
24.08	0.562332
24.09	0.562405
24.09	0.562503
24.1	0.562503
24.1101	0.562626
24.1201	0.562775
24.1301	0.562948
24.1402	0.563146
24.1502	0.563369
24.1603	0.563617
24.1703	0.56389
24.1803	0.564188
24.1904	0.564511
24.2004	0.564859
24.2104	0.565232
24.2205	0.565629
24.2305	0.566051
24.2406	0.566498
24.2506	0.56697
24.2606	0.567466
24.2707	0.567987
24.2807	0.568532
24.2907	0.569103
24.3008	0.569697
24.3108	0.570316
24.3209	0.570959
24.3309	0.571627
24.3409	0.572319
24.351	0.573035
24.361	0.573775
24.371	0.57454
24.3811	0.575328
24.3911	0.576141
24.4012	0.576977
24.4112	0.577837
24.4212	0.578721
24.4313	0.579629
24.4413	0.58056
24.4513	0.581515
24.4614	0.582493
24.4714	0.583495
24.4815	0.584519
24.4915	0.585568
24.5015	0.586639
24.5116	0.587733
24.5216	0.58885
24.5316	0.58999
24.5417	0.591153
24.5517	0.592339
24.5618	0.593547
24.5718	0.594777
24.5818	0.59603
24.5919	0.597305
24.6019	0.598602
24.6119	0.599922
24.622	0.601263
24.632	0.602626
24.6421	0.604011
24.6521	0.605417
24.6621	0.606845
24.6722	0.608294
24.6822	0.609764
24.6922	0.611256
24.7023	0.612768
24.7123	0.614302
24.7224	0.615856
24.7324	0.617431
24.7424	0.619026
24.7525	0.620642
24.7625	0.622277
24.7725	0.623933
24.7826	0.625609
24.7926	0.627305
24.8027	0.62902
24.8127	0.630755
24.8227	0.632509
24.8328	0.634283
24.8428	0.636075
24.8528	0.637887
24.8629	0.639717
24.8729	0.641566
24.883	0.643433
24.893	0.645319
24.903	0.647223
24.9131	0.649144
24.9231	0.651084
24.9331	0.653042
24.9432	0.655017
24.9532	0.657009
24.9633	0.659018
24.9733	0.661045
24.9833	0.663088
24.9934	0.665148
25.0034	0.667225
25.0134	0.669318
25.0235	0.671427
25.0335	0.673553
25.0436	0.675694
25.0536	0.67785
25.0636	0.680022
25.0737	0.68221
25.0837	0.684412
25.0937	0.68663
25.1038	0.688862
25.1138	0.691109
25.1239	0.69337
25.1339	0.695646
25.1439	0.697935
25.154	0.700238
25.164	0.702555
25.174	0.704885
25.1841	0.707229
25.1941	0.709585
25.2042	0.711955
25.2142	0.714337
25.2242	0.716731
25.2343	0.719138
25.2443	0.721557
25.2543	0.723987
25.2644	0.726429
25.2744	0.728883
25.2845	0.731348
25.2945	0.733824
25.3045	0.736311
25.3146	0.738808
25.3246	0.741316
25.3346	0.743835
25.3447	0.746363
25.3547	0.748901
25.3648	0.751448
25.3748	0.754005
25.3848	0.756571
25.3949	0.759146
25.4049	0.76173
25.4149	0.764322
25.425	0.766923
25.435	0.769531
25.4451	0.772148
25.4551	0.774772
25.4651	0.777404
25.4752	0.780043
25.4852	0.782689
25.4952	0.785341
25.5053	0.788001
25.5153	0.790666
25.5254	0.793338
25.5354	0.796016
25.5454	0.798699
25.5555	0.801388
25.5655	0.804082
25.5755	0.806781
25.5856	0.809485
25.5956	0.812193
25.6057	0.814906
25.6157	0.817623
25.6257	0.820344
25.6358	0.823068
25.6458	0.825796
25.6558	0.828527
25.6659	0.831261
25.6759	0.833998
25.686	0.836737
25.696	0.839479
25.706	0.842223
25.7161	0.844968
25.7261	0.847716
25.7361	0.850464
25.7462	0.853214
25.7562	0.855965
25.7663	0.858716
25.7763	0.861468
25.7863	0.864221
25.7964	0.866973
25.8064	0.869725
25.8164	0.872477
25.8265	0.875228
25.8365	0.877978
25.8466	0.880727
25.8566	0.883475
25.8666	0.886221
25.8767	0.888965
25.8867	0.891707
25.8967	0.894447
25.9068	0.897185
25.9168	0.89992
25.9269	0.902652
25.9369	0.905381
25.9469	0.908106
25.957	0.910828
25.967	0.913546
25.977	0.91626
25.9871	0.91897
25.9971	0.921675
26.0072	0.924375
26.0172	0.927071
26.0272	0.929761
26.0373	0.932446
26.0473	0.935125
26.0573	0.937799
26.0674	0.940466
26.0774	0.943127
26.0875	0.945782
26.0975	0.94843
26.1075	0.951071
26.1176	0.953704
26.1276	0.956331
26.1376	0.95895
26.1477	0.961561
26.1577	0.964164
26.1678	0.966758
26.1778	0.969344
26.1878	0.971922
26.1979	0.974491
26.2079	0.97705
26.2179	0.9796
26.228	0.982141
26.238	0.984672
26.2481	0.987193
26.2581	0.989704
26.2681	0.992205
26.2782	0.994694
26.2882	0.997174
26.2982	0.999642
26.3083	1.0021
26.3183	1.00454
26.3284	1.00698
26.3384	1.0094
26.3484	1.01181
26.3585	1.01421
26.3685	1.01659
26.3785	1.01897
26.3886	1.02133
26.3986	1.02367
26.4087	1.02601
26.4187	1.02833
26.4287	1.03064
26.4388	1.03293
26.4488	1.03521
26.4588	1.03747
26.4689	1.03973
26.4789	1.04196
26.489	1.04418
26.499	1.04639
26.509	1.04858
26.5191	1.05076
26.5291	1.05292
26.5391	1.05507
26.5492	1.0572
26.5592	1.05931
26.5693	1.06141
26.5793	1.06349
26.5893	1.06555
26.5994	1.0676
26.6094	1.06963
26.6194	1.07165
26.6295	1.07364
26.6395	1.07562
26.6496	1.07759
26.6596	1.07953
26.6696	1.08146
26.6797	1.08337
26.6897	1.08526
26.6997	1.08713
26.7098	1.08899
26.7198	1.09082
26.7299	1.09264
26.7399	1.09444
26.7499	1.09622
26.76	1.09797
26.76	1.09971
26.77	1.09972
26.78	1.10144
26.7901	1.10314
26.8001	1.10482
26.8102	1.10648
26.8202	1.10812
26.8302	1.10974
26.8403	1.11134
26.8503	1.11293
26.8603	1.11449
26.8704	1.11602
26.8804	1.11754
26.8905	1.11904
26.9005	1.12052
26.9105	1.12197
26.9206	1.12341
26.9306	1.12482
26.9406	1.12621
26.9507	1.12758
26.9607	1.12893
26.9708	1.13025
26.9808	1.13156
26.9908	1.13284
27.0009	1.1341
27.0109	1.13533
27.0209	1.13655
27.031	1.13774
27.041	1.13891
27.0511	1.14006
27.0611	1.14118
27.0711	1.14228
27.0812	1.14336
27.0912	1.14441
27.1012	1.14545
27.1113	1.14645
27.1213	1.14744
27.1314	1.1484
27.1414	1.14934
27.1514	1.15025
27.1615	1.15114
27.1715	1.15201
27.1815	1.15285
27.1916	1.15367
27.2016	1.15447
27.2117	1.15524
27.2217	1.15599
27.2317	1.15671
27.2418	1.15741
27.2518	1.15808
27.2618	1.15873
27.2719	1.15936
27.2819	1.15996
27.292	1.16054
27.302	1.16109
27.312	1.16162
27.3221	1.16212
27.3321	1.1626
27.3421	1.16305
27.3522	1.16348
27.3622	1.16389
27.3723	1.16427
27.3823	1.16462
27.3923	1.16495
27.4024	1.16526
27.4124	1.16554
27.4224	1.16579
27.4325	1.16602
27.4425	1.16623
27.4526	1.16641
27.4626	1.16657
27.4726	1.1667
27.4827	1.1668
27.4927	1.16688
27.5027	1.16694
27.5128	1.16697
27.5228	1.16697
27.5329	1.16695
27.5429	1.16691
27.5529	1.16684
27.563	1.16674
27.573	1.16662
27.583	1.16648
27.5931	1.16631
27.6031	1.16611
27.6132	1.16589
27.6232	1.16565
27.6332	1.16538
27.6433	1.16508
27.6533	1.16476
27.6633	1.16442
27.6734	1.16405
27.6834	1.16365
27.6935	1.16323
27.7035	1.16279
27.7135	1.16232
27.7236	1.16183
27.7336	1.16131
27.7436	1.16077
27.7537	1.1602
27.7637	1.15961
27.7738	1.15899
27.7838	1.15835
27.7938	1.15769
27.8039	1.157
27.8139	1.15629
27.8239	1.15555
27.834	1.15479
27.844	1.154
27.8541	1.15319
27.8641	1.15236
27.8741	1.1515
27.8842	1.15062
27.8942	1.14972
27.9042	1.14879
27.9143	1.14784
27.9243	1.14686
27.9344	1.14586
27.9444	1.14484
27.9544	1.14379
27.9645	1.14273
27.9745	1.14163
27.9845	1.14052
27.9946	1.13938
28.0046	1.13822
28.0147	1.13704
28.0247	1.13583
28.0347	1.13461
28.0448	1.13336
28.0548	1.13208
28.0648	1.13079
28.0749	1.12947
28.0849	1.12813
28.095	1.12677
28.105	1.12539
28.115	1.12399
28.1251	1.12256
28.1351	1.12112
28.1451	1.11965
28.1552	1.11816
28.1652	1.11665
28.1753	1.11512
28.1853	1.11357
28.1953	1.11199
28.2054	1.1104
28.2154	1.10879
28.2254	1.10716
28.2355	1.1055
28.2455	1.10383
28.2556	1.10214
28.2656	1.10042
28.2756	1.09869
28.2857	1.09694
28.2957	1.09517
28.3057	1.09338
28.3158	1.09157
28.3258	1.08974
28.3359	1.08789
28.3459	1.08603
28.3559	1.08415
28.366	1.08224
28.376	1.08032
28.386	1.07839
28.3961	1.07643
28.4061	1.07446
28.4162	1.07247
28.4262	1.07046
28.4362	1.06844
28.4463	1.06639
28.4563	1.06434
28.4663	1.06226
28.4764	1.06017
28.4864	1.05806
28.4965	1.05594
28.5065	1.0538
28.5165	1.05165
28.5266	1.04948
28.5366	1.04729
28.5466	1.04509
28.5567	1.04287
28.5667	1.04064
28.5768	1.0384
28.5868	1.03614
28.5968	1.03387
28.6069	1.03158
28.6169	1.02928
28.6269	1.02696
28.637	1.02463
28.647	1.02229
28.6571	1.01994
28.6671	1.01757
28.6771	1.01519
28.6872	1.01279
28.6972	1.01039
28.7072	1.00797
28.7173	1.00554
28.7273	1.0031
28.7374	1.00065
28.7474	0.998186
28.7574	0.995712
28.7675	0.993226
28.7775	0.99073
28.7875	0.988223
28.7976	0.985706
28.8076	0.983179
28.8177	0.980643
28.8277	0.978096
28.8377	0.975541
28.8478	0.972976
28.8578	0.970402
28.8678	0.967819
28.8779	0.965228
28.8879	0.962628
28.898	0.96002
28.908	0.957405
28.918	0.954782
28.9281	0.952151
28.9381	0.949513
28.9481	0.946868
28.9582	0.944216
28.9682	0.941557
28.9783	0.938893
28.9883	0.936222
28.9983	0.933545
29.0084	0.930862
29.0184	0.928174
29.0284	0.92548
29.0385	0.922782
29.0485	0.920079
29.0586	0.917371
29.0686	0.914659
29.0786	0.911942
29.0887	0.909222
29.0987	0.906498
29.1087	0.90377
29.1188	0.90104
29.1288	0.898306
29.1389	0.895569
29.1489	0.89283
29.1589	0.890089
29.169	0.887345
29.179	0.8846
29.189	0.881853
29.1991	0.879104
29.2091	0.876355
29.2192	0.873604
29.2292	0.870853
29.2392	0.868101
29.2493	0.865348
29.2593	0.862596
29.2693	0.859844
29.2794	0.857092
29.2894	0.854341
29.2995	0.851591
29.3095	0.848842
29.3195	0.846094
29.3296	0.843348
29.3396	0.840603
29.3496	0.83786
29.3597	0.83512
29.3697	0.832382
29.3798	0.829647
29.3898	0.826915
29.3998	0.824185
29.4099	0.82146
29.4199	0.818737
29.4299	0.816019
29.44	0.813304
29.44	0.810604
29.45	0.810594
29.4601	0.807888
29.4701	0.805187
29.4801	0.802491
29.4902	0.7998
29.5002	0.797115
29.5102	0.794435
29.5203	0.79176
29.5303	0.789092
29.5404	0.78643
29.5504	0.783775
29.5604	0.781126
29.5705	0.778484
29.5805	0.77585
29.5905	0.773222
29.6006	0.770603
29.6106	0.767991
29.6207	0.765387
29.6307	0.762791
29.6407	0.760204
29.6508	0.757625
29.6608	0.755055
29.6708	0.752495
29.6809	0.749943
29.6909	0.747401
29.701	0.744869
29.711	0.742347
29.721	0.739835
29.7311	0.737333
29.7411	0.734842
29.7511	0.732361
29.7612	0.729892
29.7712	0.727433
29.7813	0.724986
29.7913	0.722551
29.8013	0.720127
29.8114	0.717716
29.8214	0.715316
29.8314	0.712929
29.8415	0.710555
29.8515	0.708193
29.8616	0.705844
29.8716	0.703508
29.8816	0.701186
29.8917	0.698877
29.9017	0.696582
29.9117	0.694301
29.9218	0.692034
29.9318	0.689781
29.9419	0.687543
29.9519	0.685319
29.9619	0.683111
29.972	0.680917
29.982	0.678738
29.992	0.676575
30.0021	0.674428
30.0121	0.672296
30.0222	0.67018
30.0322	0.668081
30.0422	0.665997
30.0523	0.663931
30.0623	0.66188
30.0723	0.659847
30.0824	0.65783
30.0924	0.655831
30.1025	0.653849
30.1125	0.651884
30.1225	0.649937
30.1326	0.648008
30.1426	0.646097
30.1526	0.644203
30.1627	0.642329
30.1727	0.640472
30.1828	0.638634
30.1928	0.636815
30.2028	0.635015
30.2129	0.633233
30.2229	0.631471
30.2329	0.629729
30.243	0.628005
30.253	0.626302
30.2631	0.624618
30.2731	0.622954
30.2831	0.621309
30.2932	0.619686
30.3032	0.618082
30.3132	0.616499
30.3233	0.614936
30.3333	0.613394
30.3434	0.611873
30.3534	0.610373
30.3634	0.608894
30.3735	0.607436
30.3835	0.605999
30.3935	0.604584
30.4036	0.603191
30.4136	0.601819
30.4237	0.600468
30.4337	0.59914
30.4437	0.597834
30.4538	0.59655
30.4638	0.595288
30.4738	0.594048
30.4839	0.592831
30.4939	0.591636
30.504	0.590464
30.514	0.589315
30.524	0.588188
30.5341	0.587084
30.5441	0.586004
30.5541	0.584946
30.5642	0.583912
30.5742	0.582901
30.5843	0.581913
30.5943	0.580948
30.6043	0.580007
30.6144	0.57909
30.6244	0.578196
30.6344	0.577327
30.6445	0.57648
30.6545	0.575658
30.6646	0.57486
30.6746	0.574086
30.6846	0.573335
30.6947	0.572609
30.7047	0.571908
30.7147	0.57123
30.7248	0.570577
30.7348	0.569948
30.7449	0.569343
30.7549	0.568763
30.7649	0.568208
30.775	0.567677
30.785	0.56717
30.795	0.566688
30.8051	0.566231
30.8151	0.565799
30.8252	0.565392
30.8352	0.565009
30.8452	0.564651
30.8553	0.564318
30.8653	0.56401
30.8753	0.563726
30.8854	0.563468
30.8954	0.563234
30.9055	0.563026
30.9155	0.562843
30.9255	0.562684
30.9356	0.562551
30.9456	0.562442
30.9556	0.562359
30.9657	0.562301
30.9757	0.562267
30.9858	0.562259
30.9958	0.562276
31.0058	0.562318
31.0159	0.562385
31.0259	0.562477
31.0359	0.562594
31.046	0.562736
31.056	0.562903
31.0661	0.563095
31.0761	0.563312
31.0861	0.563554
31.0962	0.563821
31.1062	0.564113
31.1162	0.56443
31.1263	0.564771
31.1363	0.565138
31.1464	0.565529
31.1564	0.565945
31.1664	0.566386
31.1765	0.566852
31.1865	0.567342
31.1965	0.567857
31.2066	0.568396
31.2166	0.56896
31.2267	0.569549
31.2367	0.570162
31.2467	0.570799
31.2568	0.571461
31.2668	0.572147
31.2768	0.572857
31.2869	0.573591
31.2969	0.57435
31.307	0.575133
31.317	0.575939
31.327	0.57677
31.3371	0.577624
31.3471	0.578502
31.3571	0.579404
31.3672	0.580329
31.3772	0.581278
31.3873	0.582251
31.3973	0.583247
31.4073	0.584266
31.4174	0.585308
31.4274	0.586374
31.4374	0.587462
31.4475	0.588574
31.4575	0.589708
31.4676	0.590866
31.4776	0.592046
31.4876	0.593248
31.4977	0.594473
31.5077	0.59572
31.5177	0.59699
31.5278	0.598282
31.5378	0.599596
31.5479	0.600932
31.5579	0.602289
31.5679	0.603669
31.578	0.60507
31.588	0.606492
31.598	0.607936
31.6081	0.609402
31.6181	0.610888
31.6282	0.612395
31.6382	0.613924
31.6482	0.615473
31.6583	0.617043
31.6683	0.618633
31.6783	0.620243
31.6884	0.621874
31.6984	0.623525
31.7085	0.625196
31.7185	0.626887
31.7285	0.628597
31.7386	0.630327
31.7486	0.632077
31.7586	0.633846
31.7687	0.635634
31.7787	0.63744
31.7888	0.639266
31.7988	0.64111
31.8088	0.642973
31.8189	0.644854
31.8289	0.646754
31.8389	0.648671
31.849	0.650607
31.859	0.65256
31.8691	0.65453
31.8791	0.656518
31.8891	0.658524
31.8992	0.660546
31.9092	0.662585
31.9192	0.664641
31.9293	0.666714
31.9393	0.668803
31.9494	0.670908
31.9594	0.67303
31.9694	0.675167
31.9795	0.67732
31.9895	0.679488
31.9995	0.681672
32.0096	0.683871
32.0196	0.686084
32.0297	0.688313
32.0397	0.690556
32.0497	0.692814
32.0598	0.695086
32.0698	0.697372
32.0798	0.699672
32.0899	0.701985
32.0999	0.704312
32.11	0.706652
32.12	0.709006
32.12	0.711363
32.13	0.711372
32.1401	0.713751
32.1501	0.716142
32.1601	0.718546
32.1702	0.720962
32.1802	0.72339
32.1903	0.725829
32.2003	0.72828
32.2103	0.730742
32.2204	0.733216
32.2304	0.7357
32.2404	0.738195
32.2505	0.7407
32.2605	0.743216
32.2706	0.745741
32.2806	0.748277
32.2906	0.750822
32.3007	0.753377
32.3107	0.755941
32.3207	0.758514
32.3308	0.761095
32.3408	0.763685
32.3509	0.766284
32.3609	0.768891
32.3709	0.771505
32.381	0.774128
32.391	0.776758
32.401	0.779395
32.4111	0.782039
32.4211	0.78469
32.4312	0.787348
32.4412	0.790012
32.4512	0.792682
32.4613	0.795358
32.4713	0.79804
32.4813	0.800728
32.4914	0.80342
32.5014	0.806118
32.5115	0.808821
32.5215	0.811528
32.5315	0.81424
32.5416	0.816956
32.5516	0.819676
32.5616	0.822399
32.5717	0.825126
32.5817	0.827857
32.5918	0.83059
32.6018	0.833326
32.6118	0.836065
32.6219	0.838806
32.6319	0.841549
32.6419	0.844295
32.652	0.847041
32.662	0.84979
32.6721	0.852539
32.6821	0.85529
32.6921	0.858041
32.7022	0.860793
32.7122	0.863545
32.7222	0.866298
32.7323	0.86905
32.7423	0.871802
32.7524	0.874553
32.7624	0.877303
32.7724	0.880052
32.7825	0.882801
32.7925	0.885547
32.8025	0.888292
32.8126	0.891035
32.8226	0.893775
32.8327	0.896514
32.8427	0.899249
32.8527	0.901982
32.8628	0.904711
32.8728	0.907438
32.8828	0.910161
32.8929	0.912879
32.9029	0.915594
32.913	0.918305
32.923	0.921012
32.933	0.923713
32.9431	0.92641
32.9531	0.929101
32.9631	0.931788
32.9732	0.934468
32.9832	0.937143
32.9933	0.939812
33.0033	0.942475
33.0133	0.945131
33.0234	0.947781
33.0334	0.950423
33.0434	0.953059
33.0535	0.955687
33.0635	0.958308
33.0736	0.960921
33.0836	0.963526
33.0936	0.966122
33.1037	0.968711
33.1137	0.97129
33.1237	0.973861
33.1338	0.976423
33.1438	0.978976
33.1539	0.981519
33.1639	0.984052
33.1739	0.986576
33.184	0.989089
33.194	0.991592
33.204	0.994085
33.2141	0.996566
33.2241	0.999037
33.2342	1.0015
33.2442	1.00395
33.2542	1.00638
33.2643	1.00881
33.2743	1.01122
33.2843	1.01362
33.2944	1.01601
33.3044	1.01839
33.3145	1.02075
33.3245	1.0231
33.3345	1.02544
33.3446	1.02776
33.3546	1.03007
33.3646	1.03237
33.3747	1.03465
33.3847	1.03692
33.3948	1.03917
33.4048	1.04141
33.4148	1.04364
33.4249	1.04585
33.4349	1.04805
33.4449	1.05023
33.455	1.05239
33.465	1.05454
33.4751	1.05667
33.4851	1.05879
33.4951	1.06089
33.5052	1.06298
33.5152	1.06505
33.5252	1.0671
33.5353	1.06914
33.5453	1.07115
33.5554	1.07316
33.5654	1.07514
33.5754	1.07711
33.5855	1.07906
33.5955	1.08099
33.6055	1.0829
33.6156	1.0848
33.6256	1.08667
33.6357	1.08853
33.6457	1.09037
33.6557	1.09219
33.6658	1.094
33.6758	1.09578
33.6858	1.09754
33.6959	1.09929
33.7059	1.10102
33.716	1.10272
33.726	1.10441
33.736	1.10607
33.7461	1.10772
33.7561	1.10935
33.7661	1.11095
33.7762	1.11254
33.7862	1.1141
33.7963	1.11565
33.8063	1.11717
33.8163	1.11868
33.8264	1.12016
33.8364	1.12162
33.8464	1.12306
33.8565	1.12447
33.8665	1.12587
33.8766	1.12725
33.8866	1.1286
33.8966	1.12993
33.9067	1.13124
33.9167	1.13253
33.9267	1.13379
33.9368	1.13503
33.9468	1.13625
33.9569	1.13745
33.9669	1.13862
33.9769	1.13978
33.987	1.14091
33.997	1.14201
34.007	1.1431
34.0171	1.14416
34.0271	1.14519
34.0372	1.14621
34.0472	1.1472
34.0572	1.14817
34.0673	1.14911
34.0773	1.15003
34.0873	1.15093
34.0974	1.1518
34.1074	1.15265
34.1175	1.15347
34.1275	1.15427
34.1375	1.15505
34.1476	1.15581
34.1576	1.15653
34.1676	1.15724
34.1777	1.15792
34.1877	1.15858
34.1978	1.15921
34.2078	1.15982
34.2178	1.1604
34.2279	1.16096
34.2379	1.16149
34.2479	1.162
34.258	1.16249
34.268	1.16295
34.2781	1.16338
34.2881	1.16379
34.2981	1.16418
34.3082	1.16454
34.3182	1.16487
34.3282	1.16519
34.3383	1.16547
34.3483	1.16573
34.3584	1.16597
34.3684	1.16618
34.3784	1.16637
34.3885	1.16653
34.3985	1.16667
34.4085	1.16678
34.4186	1.16686
34.4286	1.16693
34.4387	1.16696
34.4487	1.16697
34.4587	1.16696
34.4688	1.16692
34.4788	1.16686
34.4888	1.16677
34.4989	1.16665
34.5089	1.16651
34.519	1.16635
34.529	1.16616
34.539	1.16595
34.5491	1.16571
34.5591	1.16544
34.5691	1.16516
34.5792	1.16484
34.5892	1.1645
34.5993	1.16414
34.6093	1.16375
34.6193	1.16334
34.6294	1.1629
34.6394	1.16244
34.6494	1.16195
34.6595	1.16144
34.6695	1.1609
34.6796	1.16034
34.6896	1.15976
34.6996	1.15915
34.7097	1.15851
34.7197	1.15785
34.7297	1.15717
34.7398	1.15646
34.7498	1.15573
34.7599	1.15498
34.7699	1.1542
34.7799	1.15339
34.79	1.15257
34.79	1.15172
34.8	1.15171
34.81	1.15084
34.8201	1.14994
34.8301	1.14902
34.8402	1.14807
34.8502	1.1471
34.8602	1.14611
34.8703	1.14509
34.8803	1.14405
34.8903	1.14299
34.9004	1.1419
34.9104	1.1408
34.9205	1.13966
34.9305	1.13851
34.9405	1.13733
34.9506	1.13613
34.9606	1.13491
34.9706	1.13367
34.9807	1.1324
34.9907	1.13111
35.0008	1.1298
35.0108	1.12846
35.0208	1.12711
35.0309	1.12573
35.0409	1.12433
35.0509	1.12291
35.061	1.12147
35.071	1.12001
35.0811	1.11853
35.0911	1.11702
35.1011	1.1155
35.1112	1.11395
35.1212	1.11238
35.1312	1.11079
35.1413	1.10919
35.1513	1.10756
35.1614	1.10591
35.1714	1.10424
35.1814	1.10255
35.1915	1.10084
35.2015	1.09912
35.2115	1.09737
35.2216	1.0956
35.2316	1.09382
35.2417	1.09201
35.2517	1.09019
35.2617	1.08835
35.2718	1.08649
35.2818	1.08461
35.2918	1.08271
35.3019	1.0808
35.3119	1.07886
35.322	1.07691
35.332	1.07494
35.342	1.07296
35.3521	1.07095
35.3621	1.06893
35.3721	1.0669
35.3822	1.06484
35.3922	1.06277
35.4023	1.06069
35.4123	1.05858
35.4223	1.05646
35.4324	1.05433
35.4424	1.05218
35.4524	1.05001
35.4625	1.04783
35.4725	1.04563
35.4826	1.04342
35.4926	1.04119
35.5026	1.03895
35.5127	1.0367
35.5227	1.03442
35.5327	1.03214
35.5428	1.02984
35.5528	1.02753
35.5629	1.02521
35.5729	1.02287
35.5829	1.02052
35.593	1.01815
35.603	1.01577
35.613	1.01338
35.6231	1.01098
35.6331	1.00857
35.6432	1.00614
35.6532	1.0037
35.6632	1.00125
35.6733	0.998792
35.6833	0.99632
35.6933	0.993837
35.7034	0.991343
35.7134	0.988839
35.7235	0.986325
35.7335	0.9838
35.7435	0.981266
35.7536	0.978722
35.7636	0.976169
35.7736	0.973606
35.7837	0.971034
35.7937	0.968454
35.8038	0.965864
35.8138	0.963267
35.8238	0.960661
35.8339	0.958047
35.8439	0.955426
35.8539	0.952797
35.864	0.950161
35.874	0.947517
35.8841	0.944867
35.8941	0.94221
35.9041	0.939547
35.9142	0.936877
35.9242	0.934202
35.9342	0.931521
35.9443	0.928834
35.9543	0.926142
35.9644	0.923444
35.9744	0.920742
35.9844	0.918036
35.9945	0.915324
36.0045	0.912609
36.0145	0.90989
36.0246	0.907167
36.0346	0.90444
36.0447	0.90171
36.0547	0.898977
36.0647	0.896241
36.0748	0.893503
36.0848	0.890762
36.0948	0.888019
36.1049	0.885274
36.1149	0.882527
36.125	0.879779
36.135	0.877029
36.145	0.874279
36.1551	0.871528
36.1651	0.868776
36.1751	0.866024
36.1852	0.863271
36.1952	0.860519
36.2053	0.857767
36.2153	0.855016
36.2253	0.852266
36.2354	0.849516
36.2454	0.846768
36.2554	0.844021
36.2655	0.841276
36.2755	0.838533
36.2856	0.835792
36.2956	0.833054
36.3056	0.830318
36.3157	0.827585
36.3257	0.824855
36.3357	0.822128
36.3458	0.819405
36.3558	0.816685
36.3659	0.81397
36.3759	0.811259
36.3859	0.808552
36.396	0.805849
36.406	0.803152
36.416	0.80046
36.4261	0.797773
36.4361	0.795092
36.4462	0.792416
36.4562	0.789746
36.4662	0.787083
36.4763	0.784426
36.4863	0.781775
36.4963	0.779132
36.5064	0.776495
36.5164	0.773866
36.5265	0.771245
36.5365	0.768631
36.5465	0.766025
36.5566	0.763427
36.5666	0.760838
36.5766	0.758257
36.5867	0.755685
36.5967	0.753122
36.6068	0.750568
36.6168	0.748024
36.6268	0.74549
36.6369	0.742965
36.6469	0.74045
36.6569	0.737946
36.667	0.735452
36.677	0.732969
36.6871	0.730497
36.6971	0.728036
36.7071	0.725586
36.7172	0.723148
36.7272	0.720721
36.7372	0.718306
36.7473	0.715904
36.7573	0.713514
36.7674	0.711136
36.7774	0.708771
36.7874	0.706419
36.7975	0.70408
36.8075	0.701754
36.8175	0.699442
36.8276	0.697144
36.8376	0.694859
36.8477	0.692589
36.8577	0.690332
36.8677	0.688091
36.8778	0.685863
36.8878	0.683651
36.8978	0.681454
36.9079	0.679272
36.9179	0.677105
36.928	0.674953
36.938	0.672818
36.948	0.670698
36.9581	0.668594
36.9681	0.666507
36.9781	0.664436
36.9882	0.662382
36.9982	0.660344
37.0083	0.658323
37.0183	0.65632
37.0283	0.654333
37.0384	0.652365
37.0484	0.650413
37.0584	0.64848
37.0685	0.646564
37.0785	0.644666
37.0886	0.642787
37.0986	0.640926
37.1086	0.639083
37.1187	0.63726
37.1287	0.635455
37.1387	0.633669
37.1488	0.631902
37.1588	0.630154
37.1689	0.628426
37.1789	0.626718
37.1889	0.625029
37.199	0.62336
37.209	0.621711
37.219	0.620082
37.2291	0.618474
37.2391	0.616885
37.2492	0.615318
37.2592	0.613771
37.2692	0.612244
37.2793	0.610739
37.2893	0.609255
37.2993	0.607792
37.3094	0.60635
37.3194	0.604929
37.3295	0.603531
37.3395	0.602153
37.3495	0.600798
37.3596	0.599464
37.3696	0.598152
37.3796	0.596863
37.3897	0.595595
37.3997	0.59435
37.4098	0.593127
37.4198	0.591927
37.4298	0.590749
37.4399	0.589594
37.4499	0.588462
37.4599	0.587353
37.47	0.586267
37.47	0.585207
37.48	0.585203
37.4901	0.584163
37.5001	0.583146
37.5101	0.582153
37.5202	0.581183
37.5302	0.580236
37.5402	0.579313
37.5503	0.578414
37.5603	0.577538
37.5704	0.576686
37.5804	0.575858
37.5904	0.575054
37.6005	0.574273
37.6105	0.573517
37.6205	0.572785
37.6306	0.572078
37.6406	0.571394
37.6507	0.570735
37.6607	0.5701
37.6707	0.569489
37.6808	0.568903
37.6908	0.568342
37.7008	0.567805
37.7109	0.567292
37.7209	0.566804
37.731	0.566341
37.741	0.565903
37.751	0.565489
37.7611	0.5651
37.7711	0.564736
37.7811	0.564397
37.7912	0.564083
37.8012	0.563793
37.8113	0.563529
37.8213	0.563289
37.8313	0.563075
37.8414	0.562885
37.8514	0.562721
37.8614	0.562581
37.8715	0.562467
37.8815	0.562377
37.8916	0.562313
37.9016	0.562273
37.9116	0.562259
37.9217	0.56227
37.9317	0.562305
37.9417	0.562366
37.9518	0.562452
37.9618	0.562563
37.9719	0.562699
37.9819	0.56286
37.9919	0.563046
38.002	0.563257
38.012	0.563492
38.022	0.563753
38.0321	0.564039
38.0421	0.56435
38.0522	0.564685
38.0622	0.565046
38.0722	0.565431
38.0823	0.565841
38.0923	0.566276
38.1023	0.566735
38.1124	0.567219
38.1224	0.567728
38.1325	0.568262
38.1425	0.56882
38.1525	0.569402
38.1626	0.570009
38.1726	0.570641
38.1826	0.571296
38.1927	0.571976
38.2027	0.572681
38.2128	0.573409
38.2228	0.574162
38.2328	0.574938
38.2429	0.575739
38.2529	0.576564
38.2629	0.577412
38.273	0.578284
38.283	0.57918
38.2931	0.5801
38.3031	0.581043
38.3131	0.58201
38.3232	0.583
38.3332	0.584014
38.3432	0.58505
38.3533	0.58611
38.3633	0.587193
38.3734	0.588299
38.3834	0.589428
38.3934	0.59058
38.4035	0.591754
38.4135	0.592951
38.4235	0.59417
38.4336	0.595412
38.4436	0.596677
38.4537	0.597963
38.4637	0.599271
38.4737	0.600602
38.4838	0.601954
38.4938	0.603328
38.5038	0.604724
38.5139	0.606141
38.5239	0.60758
38.534	0.60904
38.544	0.610521
38.554	0.612024
38.5641	0.613547
38.5741	0.615091
38.5841	0.616655
38.5942	0.618241
38.6042	0.619846
38.6143	0.621472
38.6243	0.623118
38.6343	0.624784
38.6444	0.62647
38.6544	0.628176
38.6644	0.629901
38.6745	0.631646
38.6845	0.63341
38.6946	0.635193
38.7046	0.636995
38.7146	0.638816
38.7247	0.640656
38.7347	0.642514
38.7447	0.644391
38.7548	0.646286
38.7648	0.648199
38.7749	0.65013
38.7849	0.652079
38.7949	0.654045
38.805	0.656029
38.815	0.65803
38.825	0.660048
38.8351	0.662084
38.8451	0.664135
38.8552	0.666204
38.8652	0.668289
38.8752	0.67039
38.8853	0.672508
38.8953	0.674641
38.9053	0.67679
38.9154	0.678955
38.9254	0.681135
38.9355	0.68333
38.9455	0.68554
38.9555	0.687765
38.9656	0.690005
38.9756	0.692259
38.9857	0.694527
38.9957	0.69681
39.0057	0.699106
39.0158	0.701416
39.0258	0.70374
39.0358	0.706077
39.0459	0.708427
39.0559	0.71079
39.066	0.713166
39.076	0.715554
39.086	0.717955
39.0961	0.720368
39.1061	0.722793
39.1161	0.72523
39.1262	0.727678
39.1362	0.730137
39.1463	0.732608
39.1563	0.735089
39.1663	0.737582
39.1764	0.740084
39.1864	0.742598
39.1964	0.745121
39.2065	0.747654
39.2165	0.750197
39.2266	0.752749
39.2366	0.755311
39.2466	0.757881
39.2567	0.760461
39.2667	0.763049
39.2767	0.765646
39.2868	0.76825
39.2968	0.770863
39.3069	0.773484
39.3169	0.776112
39.3269	0.778747
39.337	0.78139
39.347	0.784039
39.357	0.786695
39.3671	0.789358
39.3771	0.792026
39.3872	0.794701
39.3972	0.797382
39.4072	0.800068
39.4173	0.802759
39.4273	0.805456
39.4373	0.808157
39.4474	0.810864
39.4574	0.813574
39.4675	0.816289
39.4775	0.819008
39.4875	0.821731
39.4976	0.824457
39.5076	0.827186
39.5176	0.829919
39.5277	0.832655
39.5377	0.835393
39.5478	0.838133
39.5578	0.840876
39.5678	0.843621
39.5779	0.846367
39.5879	0.849115
39.5979	0.851865
39.608	0.854615
39.618	0.857366
39.6281	0.860118
39.6381	0.86287
39.6481	0.865622
39.6582	0.868375
39.6682	0.871127
39.6782	0.873878
39.6883	0.876628
39.6983	0.879378
39.7084	0.882126
39.7184	0.884873
39.7284	0.887619
39.7385	0.890362
39.7485	0.893103
39.7585	0.895842
39.7686	0.898578
39.7786	0.901312
39.7887	0.904042
39.7987	0.906769
39.8087	0.909493
39.8188	0.912213
39.8288	0.914929
39.8388	0.917641
39.8489	0.920348
39.8589	0.923051
39.869	0.925749
39.879	0.928442
39.889	0.931129
39.8991	0.933811
39.9091	0.936488
39.9191	0.939158
39.9292	0.941822
39.9392	0.94448
39.9493	0.947131
39.9593	0.949776
39.9693	0.952413
39.9794	0.955043
39.9894	0.957666
39.9994	0.96028
40.0095	0.962887
40.0195	0.965486
40.0296	0.968076
40.0396	0.970658
40.0496	0.973231
40.0597	0.975795
40.0697	0.97835
40.0797	0.980896
40.0898	0.983431
40.0998	0.985957
40.1099	0.988473
40.1199	0.990979
40.1299	0.993474
40.14	0.995958
40.14	0.998423
40.15	0.998432
40.16	1.00089
40.1701	1.00335
40.1801	1.00579
40.1902	1.00821
40.2002	1.01063
40.2102	1.01303
40.2203	1.01543
40.2303	1.0178
40.2403	1.02017
40.2504	1.02252
40.2604	1.02487
40.2705	1.02719
40.2805	1.02951
40.2905	1.03181
40.3006	1.03409
40.3106	1.03636
40.3206	1.03862
40.3307	1.04087
40.3407	1.0431
40.3508	1.04531
40.3608	1.04751
40.3708	1.04969
40.3809	1.05186
40.3909	1.05402
40.4009	1.05615
40.411	1.05827
40.421	1.06038
40.4311	1.06247
40.4411	1.06454
40.4511	1.0666
40.4612	1.06864
40.4712	1.07066
40.4812	1.07267
40.4913	1.07466
40.5013	1.07663
40.5114	1.07858
40.5214	1.08052
40.5314	1.08243
40.5415	1.08433
40.5515	1.08622
40.5615	1.08808
40.5716	1.08992
40.5816	1.09175
40.5917	1.09356
40.6017	1.09534
40.6117	1.09711
40.6218	1.09886
40.6318	1.10059
40.6418	1.10231
40.6519	1.104
40.6619	1.10567
40.672	1.10732
40.682	1.10895
40.692	1.11056
40.7021	1.11215
40.7121	1.11372
40.7221	1.11527
40.7322	1.1168
40.7422	1.11831
40.7523	1.1198
40.7623	1.12126
40.7723	1.12271
40.7824	1.12413
40.7924	1.12553
40.8024	1.12691
40.8125	1.12827
40.8225	1.1296
40.8326	1.13092
40.8426	1.13221
40.8526	1.13348
40.8627	1.13473
40.8727	1.13596
40.8827	1.13716
40.8928	1.13834
40.9028	1.1395
40.9129	1.14063
40.9229	1.14174
40.9329	1.14283
40.943	1.1439
40.953	1.14494
40.963	1.14596
40.9731	1.14696
40.9831	1.14793
40.9932	1.14888
41.0032	1.14981
41.0132	1.15071
41.0233	1.15159
41.0333	1.15244
41.0433	1.15327
41.0534	1.15408
41.0634	1.15486
41.0735	1.15562
41.0835	1.15636
41.0935	1.15707
41.1036	1.15775
41.1136	1.15842
41.1236	1.15906
41.1337	1.15967
41.1437	1.16026
41.1538	1.16082
41.1638	1.16136
41.1738	1.16188
41.1839	1.16237
41.1939	1.16283
41.2039	1.16328
41.214	1.16369
41.224	1.16408
41.2341	1.16445
41.2441	1.16479
41.2541	1.16511
41.2642	1.1654
41.2742	1.16567
41.2842	1.16591
41.2943	1.16613
41.3043	1.16632
41.3144	1.16649
41.3244	1.16663
41.3344	1.16675
41.3445	1.16684
41.3545	1.16691
41.3645	1.16695
41.3746	1.16697
41.3846	1.16696
41.3947	1.16693
41.4047	1.16687
41.4147	1.16679
41.4248	1.16668
41.4348	1.16655
41.4448	1.16639
41.4549	1.16621
41.4649	1.166
41.475	1.16577
41.485	1.16551
41.495	1.16523
41.5051	1.16492
41.5151	1.16459
41.5251	1.16423
41.5352	1.16385
41.5452	1.16344
41.5553	1.16301
41.5653	1.16255
41.5753	1.16207
41.5854	1.16157
41.5954	1.16104
41.6054	1.16048
41.6155	1.1599
41.6255	1.1593
41.6356	1.15867
41.6456	1.15802
41.6556	1.15734
41.6657	1.15664
41.6757	1.15591
41.6857	1.15516
41.6958	1.15439
41.7058	1.15359
41.7159	1.15277
41.7259	1.15192
41.7359	1.15106
41.746	1.15016
41.756	1.14925
41.766	1.14831
41.7761	1.14734
41.7861	1.14635
41.7962	1.14534
41.8062	1.14431
41.8162	1.14325
41.8263	1.14217
41.8363	1.14107
41.8463	1.13994
41.8564	1.13879
41.8664	1.13762
41.8765	1.13643
41.8865	1.13521
41.8965	1.13397
41.9066	1.13271
41.9166	1.13143
41.9266	1.13012
41.9367	1.12879
41.9467	1.12744
41.9568	1.12607
41.9668	1.12468
41.9768	1.12327
41.9869	1.12183
41.9969	1.12037
42.0069	1.11889
42.017	1.11739
42.027	1.11587
42.0371	1.11433
42.0471	1.11277
42.0571	1.11119
42.0672	1.10958
42.0772	1.10796
42.0872	1.10632
42.0973	1.10465
42.1073	1.10297
42.1174	1.10127
42.1274	1.09954
42.1374	1.0978
42.1475	1.09604
42.1575	1.09426
42.1675	1.09246
42.1776	1.09064
42.1876	1.0888
42.1977	1.08695
42.2077	1.08507
42.2177	1.08318
42.2278	1.08127
42.2378	1.07934
42.2478	1.07739
42.2579	1.07543
42.2679	1.07345
42.278	1.07145
42.288	1.06943
42.298	1.0674
42.3081	1.06535
42.3181	1.06328
42.3281	1.0612
42.3382	1.0591
42.3482	1.05698
42.3583	1.05485
42.3683	1.05271
42.3783	1.05054
42.3884	1.04837
42.3984	1.04617
42.4084	1.04396
42.4185	1.04174
42.4285	1.0395
42.4386	1.03725
42.4486	1.03498
42.4586	1.0327
42.4687	1.03041
42.4787	1.0281
42.4887	1.02578
42.4988	1.02344
42.5088	1.02109
42.5189	1.01873
42.5289	1.01636
42.5389	1.01397
42.549	1.01157
42.559	1.00916
42.569	1.00674
42.5791	1.0043
42.5891	1.00185
42.5992	0.999397
42.6092	0.996927
42.6192	0.994447
42.6293	0.991956
42.6393	0.989455
42.6493	0.986943
42.6594	0.984421
42.6694	0.981889
42.6795	0.979347
42.6895	0.976796
42.6995	0.974235
42.7096	0.971666
42.7196	0.969087
42.7296	0.9665
42.7397	0.963905
42.7497	0.961301
42.7598	0.958689
42.7698	0.95607
42.7798	0.953443
42.7899	0.950808
42.7999	0.948167
42.8099	0.945518
42.82	0.942863
42.82	0.940211
42.83	0.940201
42.8401	0.937533
42.8501	0.934859
42.8601	0.932179
42.8702	0.929494
42.8802	0.926803
42.8902	0.924107
42.9003	0.921406
42.9103	0.9187
42.9204	0.91599
42.9304	0.913276
42.9404	0.910557
42.9505	0.907835
42.9605	0.905109
42.9705	0.90238
42.9806	0.899648
42.9906	0.896913
43.0007	0.894175
43.0107	0.891434
43.0207	0.888692
43.0308	0.885947
43.0408	0.883201
43.0508	0.880453
43.0609	0.877704
43.0709	0.874954
43.081	0.872203
43.091	0.869451
43.101	0.866699
43.1111	0.863947
43.1211	0.861194
43.1311	0.858443
43.1412	0.855691
43.1512	0.85294
43.1613	0.850191
43.1713	0.847442
43.1813	0.844695
43.1914	0.84195
43.2014	0.839206
43.2114	0.836465
43.2215	0.833725
43.2315	0.830989
43.2416	0.828255
43.2516	0.825524
43.2616	0.822797
43.2717	0.820073
43.2817	0.817352
43.2917	0.814636
43.3018	0.811923
43.3118	0.809215
43.3219	0.806512
43.3319	0.803813
43.3419	0.80112
43.352	0.798432
43.362	0.795749
43.372	0.793072
43.3821	0.790401
43.3921	0.787736
43.4022	0.785077
43.4122	0.782425
43.4222	0.77978
43.4323	0.777142
43.4423	0.774511
43.4523	0.771887
43.4624	0.769271
43.4724	0.766664
43.4825	0.764064
43.4925	0.761472
43.5025	0.758889
43.5126	0.756315
43.5226	0.75375
43.5326	0.751194
43.5427	0.748648
43.5527	0.746111
43.5628	0.743583
43.5728	0.741066
43.5828	0.738559
43.5929	0.736063
43.6029	0.733577
43.6129	0.731102
43.623	0.728638
43.633	0.726186
43.6431	0.723745
43.6531	0.721315
43.6631	0.718898
43.6732	0.716492
43.6832	0.714099
43.6932	0.711718
43.7033	0.70935
43.7133	0.706995
43.7234	0.704653
43.7334	0.702324
43.7434	0.700008
43.7535	0.697706
43.7635	0.695418
43.7735	0.693144
43.7836	0.690885
43.7936	0.688639
43.8037	0.686409
43.8137	0.684193
43.8237	0.681991
43.8338	0.679806
43.8438	0.677635
43.8538	0.67548
43.8639	0.67334
43.8739	0.671217
43.884	0.669109
43.894	0.667018
43.904	0.664943
43.9141	0.662884
43.9241	0.660842
43.9341	0.658818
43.9442	0.65681
43.9542	0.654819
43.9643	0.652846
43.9743	0.65089
43.9843	0.648952
43.9944	0.647032
44.0044	0.64513
44.0144	0.643246
44.0245	0.641381
44.0345	0.639534
44.0446	0.637705
44.0546	0.635896
44.0646	0.634105
44.0747	0.632334
44.0847	0.630581
44.0947	0.628848
44.1048	0.627135
44.1148	0.625441
44.1249	0.623768
44.1349	0.622114
44.1449	0.62048
44.155	0.618866
44.165	0.617273
44.175	0.6157
44.1851	0.614148
44.1951	0.612617
44.2052	0.611107
44.2152	0.609617
44.2252	0.608149
44.2353	0.606702
44.2453	0.605276
44.2553	0.603872
44.2654	0.602489
44.2754	0.601128
44.2855	0.599789
44.2955	0.598472
44.3055	0.597177
44.3156	0.595904
44.3256	0.594654
44.3356	0.593425
44.3457	0.59222
44.3557	0.591036
44.3658	0.589876
44.3758	0.588738
44.3858	0.587623
44.3959	0.586531
44.4059	0.585462
44.4159	0.584416
44.426	0.583394
44.436	0.582395
44.4461	0.581419
44.4561	0.580466
44.4661	0.579537
44.4762	0.578632
44.4862	0.57775
44.4962	0.576893
44.5063	0.576059
44.5163	0.575249
44.5264	0.574463
44.5364	0.573701
44.5464	0.572963
44.5565	0.572249
44.5665	0.571559
44.5765	0.570894
44.5866	0.570253
44.5966	0.569637
44.6067	0.569045
44.6167	0.568477
44.6267	0.567934
44.6368	0.567416
44.6468	0.566922
44.6568	0.566453
44.6669	0.566008
44.6769	0.565588
44.687	0.565193
44.697	0.564823
44.707	0.564478
44.7171	0.564158
44.7271	0.563862
44.7371	0.563592
44.7472	0.563346
44.7572	0.563125
44.7673	0.562929
44.7773	0.562759
44.7873	0.562613
44.7974	0.562492
44.8074	0.562397
44.8174	0.562326
44.8275	0.562281
44.8375	0.56226
44.8476	0.562265
44.8576	0.562294
44.8676	0.562349
44.8777	0.562429
44.8877	0.562533
44.8977	0.562663
44.9078	0.562818
44.9178	0.562998
44.9279	0.563203
44.9379	0.563432
44.9479	0.563687
44.958	0.563967
44.968	0.564271
44.978	0.564601
44.9881	0.564955
44.9981	0.565334
45.0082	0.565738
45.0182	0.566167
45.0282	0.56662
45.0383	0.567098
45.0483	0.567601
45.0583	0.568129
45.0684	0.568681
45.0784	0.569257
45.0885	0.569858
45.0985	0.570483
45.1085	0.571133
45.1186	0.571807
45.1286	0.572506
45.1386	0.573228
45.1487	0.573975
45.1587	0.574746
45.1688	0.57554
45.1788	0.576359
45.1888	0.577202
45.1989	0.578068
45.2089	0.578958
45.2189	0.579872
45.229	0.58081
45.239	0.581771
45.2491	0.582755
45.2591	0.583763
45.2691	0.584794
45.2792	0.585848
45.2892	0.586925
45.2992	0.588026
45.3093	0.589149
45.3193	0.590295
45.3294	0.591464
45.3394	0.592655
45.3494	0.593869
45.3595	0.595106
45.3695	0.596364
45.3795	0.597645
45.3896	0.598948
45.3996	0.600273
45.4097	0.60162
45.4197	0.602989
45.4297	0.60438
45.4398	0.605792
45.4498	0.607225
45.4598	0.60868
45.4699	0.610156
45.4799	0.611653
45.49	0.613171
45.5	0.61471
45.5	0.616264
45.51	0.61627
45.5201	0.61785
45.5301	0.61945
45.5401	0.621071
45.5502	0.622713
45.5602	0.624374
45.5703	0.626055
45.5803	0.627756
45.5903	0.629476
45.6004	0.631216
45.6104	0.632975
45.6204	0.634754
45.6305	0.636551
45.6405	0.638368
45.6506	0.640203
45.6606	0.642057
45.6706	0.643929
45.6807	0.645819
45.6907	0.647728
45.7007	0.649655
45.7108	0.651599
45.7208	0.653561
45.7309	0.655541
45.7409	0.657538
45.7509	0.659552
45.761	0.661583
45.771	0.66363
45.781	0.665695
45.7911	0.667776
45.8011	0.669873
45.8112	0.671987
45.8212	0.674116
45.8312	0.676261
45.8413	0.678422
45.8513	0.680598
45.8613	0.68279
45.8714	0.684996
45.8814	0.687218
45.8915	0.689454
45.9015	0.691704
45.9115	0.693969
45.9216	0.696248
45.9316	0.698542
45.9416	0.700848
45.9517	0.703169
45.9617	0.705502
45.9718	0.707849
45.9818	0.710209
45.9918	0.712582
46.0019	0.714967
46.0119	0.717365
46.0219	0.719775
46.032	0.722197
46.042	0.724631
46.0521	0.727076
46.0621	0.729533
46.0721	0.732001
46.0822	0.734479
46.0922	0.736969
46.1022	0.739469
46.1123	0.74198
46.1223	0.744501
46.1324	0.747032
46.1424	0.749572
46.1524	0.752122
46.1625	0.754681
46.1725	0.75725
46.1825	0.759827
46.1926	0.762413
46.2026	0.765008
46.2127	0.767611
46.2227	0.770221
46.2327	0.77284
46.2428	0.775466
46.2528	0.7781
46.2628	0.780741
46.2729	0.783388
46.2829	0.786043
46.293	0.788704
46.303	0.791371
46.313	0.794044
46.3231	0.796723
46.3331	0.799408
46.3431	0.802098
46.3532	0.804794
46.3632	0.807494
46.3733	0.810199
46.3833	0.812909
46.3933	0.815623
46.4034	0.818341
46.4134	0.821062
46.4234	0.823788
46.4335	0.826516
46.4435	0.829248
46.4536	0.831983
46.4636	0.834721
46.4736	0.837461
46.4837	0.840203
46.4937	0.842947
46.5037	0.845693
46.5138	0.848441
46.5238	0.85119
46.5339	0.85394
46.5439	0.856691
46.5539	0.859443
46.564	0.862195
46.574	0.864947
46.584	0.867699
46.5941	0.870451
46.6041	0.873203
46.6142	0.875954
46.6242	0.878704
46.6342	0.881452
46.6443	0.8842
46.6543	0.886945
46.6643	0.889689
46.6744	0.892431
46.6844	0.89517
46.6945	0.897907
46.7045	0.900641
46.7145	0.903372
46.7246	0.9061
46.7346	0.908825
46.7446	0.911546
46.7547	0.914263
46.7647	0.916976
46.7748	0.919684
46.7848	0.922388
46.7948	0.925087
46.8049	0.927781
46.8149	0.93047
46.8249	0.933154
46.835	0.935832
46.845	0.938503
46.8551	0.941169
46.8651	0.943829
46.8751	0.946481
46.8852	0.949128
46.8952	0.951767
46.9052	0.954398
46.9153	0.957023
46.9253	0.95964
46.9354	0.962248
46.9454	0.964849
46.9554	0.967442
46.9655	0.970026
46.9755	0.972601
46.9855	0.975167
46.9956	0.977724
47.0056	0.980272
47.0157	0.98281
47.0257	0.985339
47.0357	0.987857
47.0458	0.990365
47.0558	0.992863
47.0658	0.99535
47.0759	0.997826
47.0859	1.00029
47.096	1.00275
47.106	1.00519
47.116	1.00762
47.1261	1.01004
47.1361	1.01244
47.1461	1.01484
47.1562	1.01722
47.1662	1.01959
47.1763	1.02195
47.1863	1.02429
47.1963	1.02662
47.2064	1.02894
47.2164	1.03124
47.2264	1.03353
47.2365	1.03581
47.2465	1.03807
47.2566	1.04032
47.2666	1.04255
47.2766	1.04477
47.2867	1.04697
47.2967	1.04916
47.3067	1.05133
47.3168	1.05349
47.3268	1.05563
47.3369	1.05776
47.3469	1.05986
47.3569	1.06196
47.367	1.06404
47.377	1.0661
47.387	1.06814
47.3971	1.07017
47.4071	1.07218
47.4172	1.07417
47.4272	1.07614
47.4372	1.0781
47.4473	1.08004
47.4573	1.08196
47.4673	1.08387
47.4774	1.08576
47.4874	1.08762
47.4975	1.08947
47.5075	1.0913
47.5175	1.09311
47.5276	1.09491
47.5376	1.09668
47.5476	1.09844
47.5577	1.10017
47.5677	1.10189
47.5778	1.10358
47.5878	1.10526
47.5978	1.10692
47.6079	1.10855
47.6179	1.11017
47.6279	1.11176
47.638	1.11334
47.648	1.11489
47.6581	1.11643
47.6681	1.11794
47.6781	1.11943
47.6882	1.1209
47.6982	1.12235
47.7082	1.12378
47.7183	1.12519
47.7283	1.12657
47.7384	1.12794
47.7484	1.12928
47.7584	1.1306
47.7685	1.1319
47.7785	1.13317
47.7885	1.13443
47.7986	1.13566
47.8086	1.13687
47.8187	1.13805
47.8287	1.13921
47.8387	1.14036
47.8488	1.14147
47.8588	1.14257
47.8688	1.14364
47.8789	1.14469
47.8889	1.14571
47.899	1.14672
47.909	1.14769
47.919	1.14865
47.9291	1.14958
47.9391	1.15049
47.9491	1.15137
47.9592	1.15223
47.9692	1.15307
47.9793	1.15388
47.9893	1.15467
47.9993	1.15544
48.0094	1.15618
48.0194	1.1569
48.0294	1.15759
48.0395	1.15826
48.0495	1.1589
48.0596	1.15952
48.0696	1.16012
48.0796	1.16069
48.0897	1.16123
48.0997	1.16175
48.1097	1.16225
48.1198	1.16272
48.1298	1.16317
48.1399	1.16359
48.1499	1.16399
48.1599	1.16436
48.17	1.16471
48.17	1.16503
48.18	1.16504
48.19	1.16533
48.2001	1.16561
48.2101	1.16586
48.2202	1.16608
48.2302	1.16628
48.2402	1.16645
48.2503	1.1666
48.2603	1.16673
48.2703	1.16682
48.2804	1.1669
48.2904	1.16695
48.3005	1.16697
48.3105	1.16697
48.3205	1.16694
48.3306	1.16689
48.3406	1.16681
48.3506	1.16671
48.3607	1.16659
48.3707	1.16643
48.3808	1.16626
48.3908	1.16606
48.4008	1.16583
48.4109	1.16558
48.4209	1.1653
48.4309	1.165
48.441	1.16467
48.451	1.16432
48.4611	1.16395
48.4711	1.16354
48.4811	1.16312
48.4912	1.16267
48.5012	1.16219
48.5112	1.16169
48.5213	1.16117
48.5313	1.16062
48.5414	1.16005
48.5514	1.15945
48.5614	1.15883
48.5715	1.15818
48.5815	1.15751
48.5915	1.15681
48.6016	1.15609
48.6116	1.15535
48.6217	1.15458
48.6317	1.15379
48.6417	1.15297
48.6518	1.15213
48.6618	1.15127
48.6718	1.15038
48.6819	1.14947
48.6919	1.14854
48.702	1.14758
48.712	1.1466
48.722	1.14559
48.7321	1.14457
48.7421	1.14351
48.7521	1.14244
48.7622	1.14134
48.7722	1.14022
48.7823	1.13908
48.7923	1.13791
48.8023	1.13672
48.8124	1.13551
48.8224	1.13428
48.8324	1.13302
48.8425	1.13174
48.8525	1.13044
48.8626	1.12912
48.8726	1.12778
48.8826	1.12641
48.8927	1.12502
48.9027	1.12361
48.9127	1.12218
48.9228	1.12073
48.9328	1.11926
48.9429	1.11776
48.9529	1.11625
48.9629	1.11471
48.973	1.11315
48.983	1.11158
48.993	1.10998
49.0031	1.10836
49.0131	1.10672
49.0232	1.10506
49.0332	1.10338
49.0432	1.10169
49.0533	1.09997
49.0633	1.09823
49.0733	1.09647
49.0834	1.0947
49.0934	1.0929
49.1035	1.09109
49.1135	1.08925
49.1235	1.0874
49.1336	1.08553
49.1436	1.08364
49.1536	1.08174
49.1637	1.07981
49.1737	1.07787
49.1838	1.07591
49.1938	1.07393
49.2038	1.07194
49.2139	1.06993
49.2239	1.0679
49.2339	1.06585
49.244	1.06379
49.254	1.06171
49.2641	1.05962
49.2741	1.0575
49.2841	1.05538
49.2942	1.05323
49.3042	1.05108
49.3142	1.0489
49.3243	1.04671
49.3343	1.04451
49.3444	1.04229
49.3544	1.04005
49.3644	1.0378
49.3745	1.03554
49.3845	1.03326
49.3945	1.03097
49.4046	1.02867
49.4146	1.02635
49.4247	1.02402
49.4347	1.02167
49.4447	1.01931
49.4548	1.01694
49.4648	1.01456
49.4748	1.01216
49.4849	1.00975
49.4949	1.00733
49.505	1.0049
49.515	1.00246
49.525	1
49.5351	0.997534
49.5451	0.995057
49.5551	0.992568
49.5652	0.990069
49.5752	0.98756
49.5853	0.98504
49.5953	0.982511
49.6053	0.979972
49.6154	0.977423
49.6254	0.974864
49.6354	0.972297
49.6455	0.969721
49.6555	0.967136
49.6656	0.964542
49.6756	0.961941
49.6856	0.959331
49.6957	0.956713
49.7057	0.954088
49.7157	0.951455
49.7258	0.948815
49.7358	0.946168
49.7459	0.943515
49.7559	0.940855
49.7659	0.938188
49.776	0.935516
49.786	0.932837
49.796	0.930153
49.8061	0.927463
49.8161	0.924769
49.8262	0.922069
49.8362	0.919364
49.8462	0.916655
49.8563	0.913942
49.8663	0.911225
49.8763	0.908503
49.8864	0.905778
49.8964	0.90305
49.9065	0.900318
49.9165	0.897584
49.9265	0.894847
49.9366	0.892107
49.9466	0.889365
49.9566	0.886621
49.9667	0.883875
49.9767	0.881128
49.9868	0.878379
49.9968	0.875629
50.0068	0.872878
50.0169	0.870126
50.0269	0.867374
50.0369	0.864622
50.047	0.86187
50.057	0.859118
50.0671	0.856366
50.0771	0.853615
50.0871	0.850865
50.0972	0.848116
50.1072	0.845369
50.1172	0.842623
50.1273	0.839879
50.1373	0.837137
50.1474	0.834397
50.1574	0.83166
50.1674	0.828925
50.1775	0.826194
50.1875	0.823466
50.1975	0.820741
50.2076	0.818019
50.2176	0.815302
50.2277	0.812588
50.2377	0.809879
50.2477	0.807175
50.2578	0.804475
50.2678	0.80178
50.2778	0.799091
50.2879	0.796407
50.2979	0.793728
50.308	0.791056
50.318	0.788389
50.328	0.785729
50.3381	0.783075
50.3481	0.780428
50.3581	0.777788
50.3682	0.775156
50.3782	0.77253
50.3883	0.769913
50.3983	0.767303
50.4083	0.764701
50.4184	0.762107
50.4284	0.759522
50.4384	0.756946
50.4485	0.754379
50.4585	0.75182
50.4686	0.749271
50.4786	0.746732
50.4886	0.744203
50.4987	0.741683
50.5087	0.739174
50.5187	0.736675
50.5288	0.734186
50.5388	0.731708
50.5489	0.729242
50.5589	0.726787
50.5689	0.724343
50.579	0.72191
50.589	0.71949
50.599	0.717081
50.6091	0.714685
50.6191	0.712301
50.6292	0.70993
50.6392	0.707571
50.6492	0.705226
50.6593	0.702894
50.6693	0.700575
50.6793	0.69827
50.6894	0.695979
50.6994	0.693701
50.7095	0.691438
50.7195	0.689189
50.7295	0.686955
50.7396	0.684735
50.7496	0.68253
50.7596	0.68034
50.7697	0.678166
50.7797	0.676007
50.7898	0.673864
50.7998	0.671736
50.8098	0.669625
50.8199	0.667529
50.8299	0.66545
50.8399	0.663388
50.85	0.661342
50.85	0.65932
50.86	0.659313
50.8701	0.657301
50.8801	0.655306
50.8901	0.653328
50.9002	0.651368
50.9102	0.649426
50.9202	0.647502
50.9303	0.645595
50.9403	0.643707
50.9504	0.641837
50.9604	0.639985
50.9704	0.638152
50.9805	0.636338
50.9905	0.634543
51.0005	0.632767
51.0106	0.63101
51.0206	0.629272
51.0307	0.627554
51.0407	0.625855
51.0507	0.624176
51.0608	0.622518
51.0708	0.620879
51.0808	0.61926
51.0909	0.617662
51.1009	0.616084
51.111	0.614527
51.121	0.612991
51.131	0.611475
51.1411	0.609981
51.1511	0.608507
51.1611	0.607055
51.1712	0.605624
51.1812	0.604214
51.1913	0.602826
51.2013	0.60146
51.2113	0.600116
51.2214	0.598793
51.2314	0.597493
51.2414	0.596214
51.2515	0.594958
51.2615	0.593725
51.2716	0.592513
51.2816	0.591325
51.2916	0.590158
51.3017	0.589015
51.3117	0.587894
51.3217	0.586797
51.3318	0.585722
51.3418	0.584671
51.3519	0.583643
51.3619	0.582638
51.3719	0.581656
51.382	0.580698
51.392	0.579763
51.402	0.578852
51.4121	0.577965
51.4221	0.577101
51.4322	0.576261
51.4422	0.575445
51.4522	0.574653
51.4623	0.573885
51.4723	0.573141
51.4823	0.572422
51.4924	0.571726
51.5024	0.571055
51.5125	0.570408
51.5225	0.569786
51.5325	0.569188
51.5426	0.568614
51.5526	0.568065
51.5626	0.567541
51.5727	0.567041
51.5827	0.566565
51.5928	0.566115
51.6028	0.565689
51.6128	0.565288
51.6229	0.564912
51.6329	0.564561
51.6429	0.564234
51.653	0.563932
51.663	0.563656
51.6731	0.563404
51.6831	0.563177
51.6931	0.562975
51.7032	0.562798
51.7132	0.562647
51.7232	0.56252
51.7333	0.562418
51.7433	0.562341
51.7534	0.562289
51.7634	0.562263
51.7734	0.562261
51.7835	0.562285
51.7935	0.562333
51.8035	0.562407
51.8136	0.562505
51.8236	0.562629
51.8337	0.562778
51.8437	0.562951
51.8537	0.56315
51.8638	0.563374
51.8738	0.563622
51.8838	0.563896
51.8939	0.564194
51.9039	0.564518
51.914	0.564866
51.924	0.565239
51.934	0.565637
51.9441	0.566059
51.9541	0.566507
51.9641	0.566979
51.9742	0.567476
51.9842	0.567997
51.9943	0.568543
52.0043	0.569113
52.0143	0.569708
52.0244	0.570328
52.0344	0.570971
52.0444	0.57164
52.0545	0.572332
52.0645	0.573049
52.0746	0.573789
52.0846	0.574554
52.0946	0.575343
52.1047	0.576156
52.1147	0.576993
52.1247	0.577853
52.1348	0.578738
52.1448	0.579646
52.1549	0.580577
52.1649	0.581533
52.1749	0.582511
52.185	0.583513
52.195	0.584539
52.205	0.585587
52.2151	0.586659
52.2251	0.587754
52.2352	0.588871
52.2452	0.590012
52.2552	0.591175
52.2653	0.592361
52.2753	0.593569
52.2853	0.5948
52.2954	0.596053
52.3054	0.597329
52.3155	0.598627
52.3255	0.599946
52.3355	0.601288
52.3456	0.602651
52.3556	0.604037
52.3656	0.605443
52.3757	0.606872
52.3857	0.608321
52.3958	0.609792
52.4058	0.611284
52.4158	0.612797
52.4259	0.614331
52.4359	0.615885
52.4459	0.61746
52.456	0.619056
52.466	0.620672
52.4761	0.622308
52.4861	0.623964
52.4961	0.625641
52.5062	0.627337
52.5162	0.629052
52.5262	0.630787
52.5363	0.632542
52.5463	0.634316
52.5564	0.636109
52.5664	0.63792
52.5764	0.639751
52.5865	0.6416
52.5965	0.643468
52.6065	0.645354
52.6166	0.647258
52.6266	0.64918
52.6367	0.65112
52.6467	0.653078
52.6567	0.655053
52.6668	0.657046
52.6768	0.659056
52.6868	0.661083
52.6969	0.663127
52.7069	0.665187
52.717	0.667264
52.727	0.669357
52.737	0.671467
52.7471	0.673592
52.7571	0.675734
52.7671	0.67789
52.7772	0.680063
52.7872	0.682251
52.7973	0.684454
52.8073	0.686671
52.8173	0.688904
52.8274	0.691151
52.8374	0.693412
52.8474	0.695688
52.8575	0.697978
52.8675	0.700281
52.8776	0.702598
52.8876	0.704929
52.8976	0.707272
52.9077	0.709629
52.9177	0.711999
52.9277	0.714381
52.9378	0.716776
52.9478	0.719183
52.9579	0.721602
52.9679	0.724032
52.9779	0.726475
52.988	0.728929
52.998	0.731394
53.008	0.73387
53.0181	0.736357
53.0281	0.738855
53.0382	0.741363
53.0482	0.743881
53.0582	0.74641
53.0683	0.748948
53.0783	0.751496
53.0883	0.754053
53.0984	0.756619
53.1084	0.759194
53.1185	0.761778
53.1285	0.76437
53.1385	0.766971
53.1486	0.76958
53.1586	0.772197
53.1686	0.774821
53.1787	0.777453
53.1887	0.780092
53.1988	0.782738
53.2088	0.785391
53.2188	0.78805
53.2289	0.790716
53.2389	0.793388
53.2489	0.796066
53.259	0.798749
53.269	0.801438
53.2791	0.804132
53.2891	0.806831
53.2991	0.809535
53.3092	0.812244
53.3192	0.814956
53.3292	0.817673
53.3393	0.820394
53.3493	0.823119
53.3594	0.825847
53.3694	0.828578
53.3794	0.831312
53.3895	0.834049
53.3995	0.836788
53.4095	0.83953
53.4196	0.842274
53.4296	0.845019
53.4397	0.847767
53.4497	0.850515
53.4597	0.853265
53.4698	0.856016
53.4798	0.858768
53.4898	0.86152
53.4999	0.864272
53.5099	0.867024
53.52	0.869776
53.53	0.872528
53.53	0.875269
53.54	0.875279
53.5501	0.878029
53.5601	0.880778
53.5701	0.883526
53.5802	0.886272
53.5902	0.889016
53.6003	0.891758
53.6103	0.894498
53.6203	0.897236
53.6304	0.899971
53.6404	0.902703
53.6504	0.905431
53.6605	0.908157
53.6705	0.910879
53.6806	0.913596
53.6906	0.91631
53.7006	0.91902
53.7107	0.921725
53.7207	0.924425
53.7307	0.927121
53.7408	0.929811
53.7508	0.932496
53.7609	0.935175
53.7709	0.937848
53.7809	0.940516
53.791	0.943177
53.801	0.945831
53.811	0.948479
53.8211	0.95112
53.8311	0.953753
53.8412	0.95638
53.8512	0.958998
53.8612	0.961609
53.8713	0.964212
53.8813	0.966806
53.8913	0.969392
53.9014	0.97197
53.9114	0.974538
53.9215	0.977098
53.9315	0.979648
53.9415	0.982188
53.9516	0.984719
53.9616	0.98724
53.9716	0.989751
53.9817	0.992251
53.9917	0.994741
54.0018	0.99722
54.0118	0.999688
54.0218	1.00214
54.0319	1.00459
54.0419	1.00702
54.0519	1.00945
54.062	1.01186
54.072	1.01425
54.0821	1.01664
54.0921	1.01901
54.1021	1.02137
54.1122	1.02372
54.1222	1.02605
54.1322	1.02837
54.1423	1.03068
54.1523	1.03297
54.1624	1.03525
54.1724	1.03752
54.1824	1.03977
54.1925	1.042
54.2025	1.04423
54.2125	1.04643
54.2226	1.04862
54.2326	1.0508
54.2427	1.05296
54.2527	1.05511
54.2627	1.05724
54.2728	1.05935
54.2828	1.06145
54.2928	1.06353
54.3029	1.06559
54.3129	1.06764
54.323	1.06967
54.333	1.07168
54.343	1.07368
54.3531	1.07566
54.3631	1.07762
54.3731	1.07957
54.3832	1.08149
54.3932	1.0834
54.4033	1.08529
54.4133	1.08717
54.4233	1.08902
54.4334	1.09086
54.4434	1.09267
54.4535	1.09447
54.4635	1.09625
54.4735	1.09801
54.4836	1.09975
54.4936	1.10147
54.5036	1.10317
54.5137	1.10485
54.5237	1.10651
54.5338	1.10815
54.5438	1.10977
54.5538	1.11137
54.5639	1.11295
54.5739	1.11451
54.5839	1.11605
54.594	1.11757
54.604	1.11907
54.6141	1.12054
54.6241	1.122
54.6341	1.12343
54.6442	1.12485
54.6542	1.12624
54.6642	1.1276
54.6743	1.12895
54.6843	1.13028
54.6944	1.13158
54.7044	1.13286
54.7144	1.13412
54.7245	1.13536
54.7345	1.13657
54.7445	1.13776
54.7546	1.13893
54.7646	1.14008
54.7747	1.1412
54.7847	1.1423
54.7947	1.14338
54.8048	1.14443
54.8148	1.14546
54.8248	1.14647
54.8349	1.14746
54.8449	1.14842
54.855	1.14936
54.865	1.15027
54.875	1.15116
54.8851	1.15203
54.8951	1.15287
54.9051	1.15369
54.9152	1.15448
54.9252	1.15525
54.9353	1.156
54.9453	1.15672
54.9553	1.15742
54.9654	1.1581
54.9754	1.15875
54.9854	1.15937
54.9955	1.15997
55.0055	1.16055
55.0156	1.1611
55.0256	1.16163
55.0356	1.16213
55.0457	1.16261
55.0557	1.16306
55.0657	1.16349
55.0758	1.1639
55.0858	1.16427
55.0959	1.16463
55.1059	1.16496
55.1159	1.16526
55.126	1.16554
55.136	1.1658
55.146	1.16603
55.1561	1.16623
55.1661	1.16641
55.1762	1.16657
55.1862	1.1667
55.1962	1.1668
55.2063	1.16688
55.2163	1.16694
55.2263	1.16697
55.2364	1.16697
55.2464	1.16695
55.2565	1.16691
55.2665	1.16684
55.2765	1.16674
55.2866	1.16662
55.2966	1.16647
55.3066	1.1663
55.3167	1.16611
55.3267	1.16589
55.3368	1.16564
55.3468	1.16537
55.3568	1.16508
55.3669	1.16475
55.3769	1.16441
55.3869	1.16404
55.397	1.16364
55.407	1.16323
55.4171	1.16278
55.4271	1.16231
55.4371	1.16182
55.4472	1.1613
55.4572	1.16076
55.4672	1.16019
55.4773	1.1596
55.4873	1.15898
55.4974	1.15834
55.5074	1.15768
55.5174	1.15699
55.5275	1.15627
55.5375	1.15553
55.5475	1.15477
55.5576	1.15399
55.5676	1.15318
55.5777	1.15234
55.5877	1.15148
55.5977	1.1506
55.6078	1.1497
55.6178	1.14877
55.6278	1.14782
55.6379	1.14684
55.6479	1.14584
55.658	1.14482
55.668	1.14377
55.678	1.14271
55.6881	1.14161
55.6981	1.1405
55.7081	1.13936
55.7182	1.1382
55.7282	1.13702
55.7383	1.13581
55.7483	1.13458
55.7583	1.13333
55.7684	1.13206
55.7784	1.13077
55.7884	1.12945
55.7985	1.12811
55.8085	1.12675
55.8186	1.12537
55.8286	1.12396
55.8386	1.12254
55.8487	1.12109
55.8587	1.11962
55.8687	1.11813
55.8788	1.11662
55.8888	1.11509
55.8989	1.11354
55.9089	1.11197
55.9189	1.11037
55.929	1.10876
55.939	1.10713
55.949	1.10547
55.9591	1.1038
55.9691	1.1021
55.9792	1.10039
55.9892	1.09866
55.9992	1.09691
56.0093	1.09513
56.0193	1.09334
56.0293	1.09153
56.0394	1.08971
56.0494	1.08786
56.0595	1.08599
56.0695	1.08411
56.0795	1.08221
56.0896	1.08029
56.0996	1.07835
56.1096	1.07639
56.1197	1.07442
56.1297	1.07243
56.1398	1.07042
56.1498	1.0684
56.1598	1.06636
56.1699	1.0643
56.1799	1.06222
56.1899	1.06013
56.2	1.05802
56.2	1.05591
56.21	1.0559
56.2201	1.05376
56.2301	1.05161
56.2401	1.04944
56.2502	1.04725
56.2602	1.04505
56.2702	1.04283
56.2803	1.0406
56.2903	1.03836
56.3004	1.0361
56.3104	1.03382
56.3204	1.03154
56.3305	1.02923
56.3405	1.02692
56.3505	1.02459
56.3606	1.02225
56.3706	1.01989
56.3807	1.01752
56.3907	1.01514
56.4007	1.01275
56.4108	1.01034
56.4208	1.00793
56.4308	1.0055
56.4409	1.00306
56.4509	1.0006
56.461	0.99814
56.471	0.995666
56.481	0.99318
56.4911	0.990683
56.5011	0.988177
56.5111	0.98566
56.5212	0.983132
56.5312	0.980595
56.5413	0.978049
56.5513	0.975493
56.5613	0.972928
56.5714	0.970354
56.5814	0.967771
56.5914	0.96518
56.6015	0.96258
56.6115	0.959972
56.6216	0.957356
56.6316	0.954733
56.6416	0.952102
56.6517	0.949464
56.6617	0.946818
56.6717	0.944166
56.6818	0.941508
56.6918	0.938843
56.7019	0.936172
56.7119	0.933495
56.7219	0.930812
56.732	0.928124
56.742	0.92543
56.752	0.922732
56.7621	0.920028
56.7721	0.91732
56.7822	0.914608
56.7922	0.911892
56.8022	0.909171
56.8123	0.906447
56.8223	0.90372
56.8323	0.900989
56.8424	0.898255
56.8524	0.895519
56.8625	0.892779
56.8725	0.890038
56.8825	0.887294
56.8926	0.884549
56.9026	0.881802
56.9126	0.879053
56.9227	0.876304
56.9327	0.873553
56.9428	0.870801
56.9528	0.86805
56.9628	0.865297
56.9729	0.862545
56.9829	0.859793
56.9929	0.857041
57.003	0.85429
57.013	0.85154
57.0231	0.848791
57.0331	0.846043
57.0431	0.843297
57.0532	0.840552
57.0632	0.837809
57.0732	0.835069
57.0833	0.832331
57.0933	0.829596
57.1034	0.826864
57.1134	0.824135
57.1234	0.821409
57.1335	0.818687
57.1435	0.815968
57.1535	0.813254
57.1636	0.810544
57.1736	0.807838
57.1837	0.805137
57.1937	0.802441
57.2037	0.79975
57.2138	0.797065
57.2238	0.794385
57.2338	0.791711
57.2439	0.789043
57.2539	0.786381
57.264	0.783726
57.274	0.781077
57.284	0.778435
57.2941	0.775801
57.3041	0.773174
57.3141	0.770554
57.3242	0.767942
57.3342	0.765338
57.3443	0.762743
57.3543	0.760156
57.3643	0.757577
57.3744	0.755008
57.3844	0.752447
57.3944	0.749896
57.4045	0.747354
57.4145	0.744822
57.4246	0.7423
57.4346	0.739788
57.4446	0.737287
57.4547	0.734796
57.4647	0.732315
57.4747	0.729846
57.4848	0.727388
57.4948	0.724941
57.5049	0.722506
57.5149	0.720082
57.5249	0.717671
57.535	0.715272
57.545	0.712885
57.555	0.71051
57.5651	0.708149
57.5751	0.7058
57.5852	0.703465
57.5952	0.701143
57.6052	0.698834
57.6153	0.696539
57.6253	0.694259
57.6353	0.691992
57.6454	0.689739
57.6554	0.687501
57.6655	0.685278
57.6755	0.68307
57.6855	0.680876
57.6956	0.678698
57.7056	0.676535
57.7156	0.674388
57.7257	0.672257
57.7357	0.670141
57.7458	0.668042
57.7558	0.665959
57.7658	0.663892
57.7759	0.661842
57.7859	0.659809
57.7959	0.657793
57.806	0.655794
57.816	0.653812
57.8261	0.651848
57.8361	0.649901
57.8461	0.647972
57.8562	0.646061
57.8662	0.644168
57.8762	0.642294
57.8863	0.640438
57.8963	0.6386
57.9064	0.636781
57.9164	0.634981
57.9264	0.633201
57.9365	0.631439
57.9465	0.629696
57.9565	0.627973
57.9666	0.62627
57.9766	0.624587
57.9867	0.622923
57.9967	0.621279
58.0067	0.619656
58.0168	0.618052
58.0268	0.61647
58.0368	0.614907
58.0469	0.613366
58.0569	0.611845
58.067	0.610345
58.077	0.608867
58.087	0.607409
58.0971	0.605973
58.1071	0.604558
58.1171	0.603165
58.1272	0.601793
58.1372	0.600444
58.1473	0.599116
58.1573	0.59781
58.1673	0.596526
58.1774	0.595264
58.1874	0.594025
58.1974	0.592808
58.2075	0.591614
58.2175	0.590442
58.2276	0.589293
58.2376	0.588167
58.2476	0.587064
58.2577	0.585984
58.2677	0.584927
58.2777	0.583893
58.2878	0.582882
58.2978	0.581895
58.3079	0.580931
58.3179	0.57999
58.3279	0.579073
58.338	0.57818
58.348	0.577311
58.358	0.576465
58.3681	0.575643
58.3781	0.574845
58.3882	0.574072
58.3982	0.573322
58.4082	0.572596
58.4183	0.571895
58.4283	0.571218
58.4383	0.570565
58.4484	0.569936
58.4584	0.569332
58.4685	0.568753
58.4785	0.568197
58.4885	0.567667
58.4986	0.567161
58.5086	0.56668
58.5186	0.566223
58.5287	0.565791
58.5387	0.565384
58.5488	0.565002
58.5588	0.564644
58.5688	0.564312
58.5789	0.564004
58.5889	0.563721
58.5989	0.563463
58.609	0.56323
58.619	0.563022
58.6291	0.562839
58.6391	0.562681
58.6491	0.562548
58.6592	0.562441
58.6692	0.562358
58.6792	0.5623
58.6893	0.562267
58.6993	0.562259
58.7094	0.562277
58.7194	0.562319
58.7294	0.562386
58.7395	0.562479
58.7495	0.562596
58.7595	0.562739
58.7696	0.562906
58.7796	0.563099
58.7897	0.563316
58.7997	0.563559
58.8097	0.563826
58.8198	0.564119
58.8298	0.564436
58.8398	0.564778
58.8499	0.565145
58.8599	0.565537
58.87	0.565953
58.88	0.566395
58.88	0.566859
58.89	0.566861
58.9001	0.567351
58.9101	0.567867
58.9201	0.568407
58.9302	0.568971
58.9402	0.56956
58.9503	0.570173
58.9603	0.570811
58.9703	0.571473
58.9804	0.57216
58.9904	0.572871
59.0004	0.573605
59.0105	0.574364
59.0205	0.575147
59.0306	0.575954
59.0406	0.576785
59.0506	0.57764
59.0607	0.578519
59.0707	0.579421
59.0807	0.580347
59.0908	0.581296
59.1008	0.582269
59.1109	0.583265
59.1209	0.584285
59.1309	0.585328
59.141	0.586394
59.151	0.587483
59.161	0.588595
59.1711	0.58973
59.1811	0.590887
59.1912	0.592068
59.2012	0.593271
59.2112	0.594496
59.2213	0.595744
59.2313	0.597014
59.2413	0.598306
59.2514	0.59962
59.2614	0.600957
59.2715	0.602315
59.2815	0.603695
59.2915	0.605096
59.3016	0.606519
59.3116	0.607963
59.3216	0.609429
59.3317	0.610916
59.3417	0.612424
59.3518	0.613952
59.3618	0.615502
59.3718	0.617072
59.3819	0.618663
59.3919	0.620274
59.4019	0.621905
59.412	0.623556
59.422	0.625227
59.4321	0.626919
59.4421	0.628629
59.4521	0.63036
59.4622	0.63211
59.4722	0.633879
59.4822	0.635667
59.4923	0.637474
59.5023	0.6393
59.5124	0.641145
59.5224	0.643008
59.5324	0.64489
59.5425	0.646789
59.5525	0.648707
59.5625	0.650643
59.5726	0.652596
59.5826	0.654567
59.5927	0.656556
59.6027	0.658561
59.6127	0.660584
59.6228	0.662624
59.6328	0.66468
59.6428	0.666753
59.6529	0.668842
59.6629	0.670948
59.673	0.673069
59.683	0.675207
59.693	0.67736
59.7031	0.679528
59.7131	0.681712
59.7231	0.683912
59.7332	0.686126
59.7432	0.688355
59.7533	0.690598
59.7633	0.692856
59.7733	0.695128
59.7834	0.697415
59.7934	0.699715
59.8034	0.702028
59.8135	0.704356
59.8235	0.706696
59.8336	0.70905
59.8436	0.711416
59.8536	0.713795
59.8637	0.716187
59.8737	0.718591
59.8837	0.721007
59.8938	0.723435
59.9038	0.725875
59.9139	0.728326
59.9239	0.730788
59.9339	0.733262
59.944	0.735746
59.954	0.738241
59.964	0.740747
59.9741	0.743263
59.9841	0.745789
59.9942	0.748324
60.0042	0.75087
60.0142	0.753424
60.0243	0.755988
60.0343	0.758561
60.0443	0.761143
60.0544	0.763734
60.0644	0.766332
60.0745	0.768939
60.0845	0.771554
60.0945	0.774177
60.1046	0.776807
60.1146	0.779444
60.1246	0.782088
60.1347	0.784739
60.1447	0.787397
60.1548	0.790061
60.1648	0.792732
60.1748	0.795408
60.1849	0.79809
60.1949	0.800778
60.2049	0.803471
60.215	0.806168
60.225	0.808871
60.2351	0.811579
60.2451	0.81429
60.2551	0.817006
60.2652	0.819726
60.2752	0.82245
60.2852	0.825177
60.2953	0.827907
60.3053	0.830641
60.3154	0.833377
60.3254	0.836116
60.3354	0.838857
60.3455	0.8416
60.3555	0.844346
60.3655	0.847093
60.3756	0.849841
60.3856	0.852591
60.3957	0.855341
60.4057	0.858092
60.4157	0.860844
60.4258	0.863597
60.4358	0.866349
60.4458	0.869101
60.4559	0.871853
60.4659	0.874604
60.476	0.877354
60.486	0.880104
60.496	0.882852
60.5061	0.885598
60.5161	0.888343
60.5261	0.891086
60.5362	0.893826
60.5462	0.896564
60.5563	0.8993
60.5663	0.902033
60.5763	0.904762
60.5864	0.907488
60.5964	0.910211
60.6064	0.91293
60.6165	0.915645
60.6265	0.918356
60.6366	0.921062
60.6466	0.923763
60.6566	0.92646
60.6667	0.929151
60.6767	0.931838
60.6867	0.934518
60.6968	0.937193
60.7068	0.939862
60.7169	0.942524
60.7269	0.94518
60.7369	0.94783
60.747	0.950472
60.757	0.953108
60.767	0.955736
60.7771	0.958356
60.7871	0.960969
60.7972	0.963574
60.8072	0.966171
60.8172	0.968759
60.8273	0.971338
60.8373	0.973909
60.8473	0.976471
60.8574	0.979023
60.8674	0.981566
60.8775	0.984099
60.8875	0.986622
60.8975	0.989136
60.9076	0.991638
60.9176	0.994131
60.9276	0.996612
60.9377	0.999083
60.9477	1.00154
60.9578	1.00399
60.9678	1.00643
60.9778	1.00885
60.9879	1.01127
60.9979	1.01367
61.0079	1.01605
61.018	1.01843
61.028	1.02079
61.0381	1.02314
61.0481	1.02548
61.0581	1.0278
61.0682	1.03011
61.0782	1.03241
61.0882	1.03469
61.0983	1.03696
61.1083	1.03922
61.1184	1.04146
61.1284	1.04368
61.1384	1.04589
61.1485	1.04809
61.1585	1.05027
61.1685	1.05243
61.1786	1.05458
61.1886	1.05671
61.1987	1.05883
61.2087	1.06093
61.2187	1.06302
61.2288	1.06509
61.2388	1.06714
61.2488	1.06917
61.2589	1.07119
61.2689	1.07319
61.279	1.07518
61.289	1.07714
61.299	1.07909
61.3091	1.08102
61.3191	1.08294
61.3291	1.08483
61.3392	1.08671
61.3492	1.08857
61.3593	1.09041
61.3693	1.09223
61.3793	1.09403
61.3894	1.09581
61.3994	1.09758
61.4094	1.09932
61.4195	1.10105
61.4295	1.10275
61.4396	1.10444
61.4496	1.10611
61.4596	1.10775
61.4697	1.10938
61.4797	1.11098
61.4897	1.11257
61.4998	1.11413
61.5098	1.11568
61.5199	1.1172
61.5299	1.1187
61.5399	1.12018
61.55	1.12164
61.55	1.12308
61.56	1.12308
61.57	1.1245
61.5801	1.1259
61.5901	1.12727
61.6002	1.12862
61.6102	1.12995
61.6202	1.13126
61.6303	1.13255
61.6403	1.13381
61.6503	1.13506
61.6604	1.13628
61.6704	1.13747
61.6805	1.13865
61.6905	1.1398
61.7005	1.14093
61.7106	1.14203
61.7206	1.14312
61.7306	1.14418
61.7407	1.14521
61.7507	1.14623
61.7608	1.14722
61.7708	1.14818
61.7808	1.14913
61.7909	1.15005
61.8009	1.15094
61.8109	1.15182
61.821	1.15266
61.831	1.15349
61.8411	1.15429
61.8511	1.15507
61.8611	1.15582
61.8712	1.15655
61.8812	1.15725
61.8912	1.15793
61.9013	1.15859
61.9113	1.15922
61.9214	1.15983
61.9314	1.16041
61.9414	1.16097
61.9515	1.1615
61.9615	1.16201
61.9715	1.16249
61.9816	1.16295
61.9916	1.16339
62.0017	1.1638
62.0117	1.16418
62.0217	1.16454
62.0318	1.16488
62.0418	1.16519
62.0518	1.16548
62.0619	1.16574
62.0719	1.16597
62.082	1.16618
62.092	1.16637
62.102	1.16653
62.1121	1.16667
62.1221	1.16678
62.1321	1.16686
62.1422	1.16693
62.1522	1.16696
62.1623	1.16697
62.1723	1.16696
62.1823	1.16692
62.1924	1.16685
62.2024	1.16677
62.2124	1.16665
62.2225	1.16651
62.2325	1.16635
62.2426	1.16616
62.2526	1.16594
62.2626	1.1657
62.2727	1.16544
62.2827	1.16515
62.2927	1.16484
62.3028	1.1645
62.3128	1.16413
62.3229	1.16374
62.3329	1.16333
62.3429	1.16289
62.353	1.16243
62.363	1.16194
62.373	1.16143
62.3831	1.16089
62.3931	1.16033
62.4032	1.15974
62.4132	1.15913
62.4232	1.1585
62.4333	1.15784
62.4433	1.15716
62.4533	1.15645
62.4634	1.15572
62.4734	1.15496
62.4835	1.15418
62.4935	1.15338
62.5035	1.15255
62.5136	1.1517
62.5236	1.15082
62.5336	1.14992
62.5437	1.149
62.5537	1.14805
62.5638	1.14708
62.5738	1.14609
62.5838	1.14507
62.5939	1.14403
62.6039	1.14297
62.6139	1.14188
62.624	1.14077
62.634	1.13964
62.6441	1.13849
62.6541	1.13731
62.6641	1.13611
62.6742	1.13489
62.6842	1.13364
62.6942	1.13237
62.7043	1.13109
62.7143	1.12977
62.7244	1.12844
62.7344	1.12708
62.7444	1.12571
62.7545	1.12431
62.7645	1.12289
62.7745	1.12145
62.7846	1.11998
62.7946	1.1185
62.8047	1.11699
62.8147	1.11547
62.8247	1.11392
62.8348	1.11235
62.8448	1.11077
62.8548	1.10916
62.8649	1.10753
62.8749	1.10588
62.885	1.10421
62.895	1.10252
62.905	1.10081
62.9151	1.09908
62.9251	1.09734
62.9351	1.09557
62.9452	1.09378
62.9552	1.09198
62.9653	1.09016
62.9753	1.08831
62.9853	1.08645
62.9954	1.08457
63.0054	1.08268
63.0154	1.08076
63.0255	1.07883
63.0355	1.07688
63.0456	1.07491
63.0556	1.07292
63.0656	1.07092
63.0757	1.0689
63.0857	1.06686
63.0957	1.0648
63.1058	1.06273
63.1158	1.06065
63.1259	1.05854
63.1359	1.05642
63.1459	1.05429
63.156	1.05214
63.166	1.04997
63.176	1.04779
63.1861	1.04559
63.1961	1.04338
63.2062	1.04115
63.2162	1.03891
63.2262	1.03665
63.2363	1.03438
63.2463	1.0321
63.2563	1.0298
63.2664	1.02749
63.2764	1.02516
63.2865	1.02282
63.2965	1.02047
63.3065	1.01811
63.3166	1.01573
63.3266	1.01334
63.3366	1.01094
63.3467	1.00852
63.3567	1.0061
63.3668	1.00366
63.3768	1.00121
63.3868	0.998746
63.3969	0.996274
63.4069	0.993791
63.4169	0.991297
63.427	0.988793
63.437	0.986278
63.4471	0.983753
63.4571	0.981219
63.4671	0.978675
63.4772	0.976121
63.4872	0.973558
63.4972	0.970986
63.5073	0.968405
63.5173	0.965816
63.5274	0.963218
63.5374	0.960613
63.5474	0.957999
63.5575	0.955377
63.5675	0.952748
63.5775	0.950112
63.5876	0.947468
63.5976	0.944818
63.6077	0.942161
63.6177	0.939497
63.6277	0.936828
63.6378	0.934152
63.6478	0.931471
63.6578	0.928784
63.6679	0.926092
63.6779	0.923394
63.688	0.920692
63.698	0.917985
63.708	0.915274
63.7181	0.912559
63.7281	0.909839
63.7381	0.907116
63.7482	0.904389
63.7582	0.901659
63.7683	0.898926
63.7783	0.89619
63.7883	0.893452
63.7984	0.890711
63.8084	0.887968
63.8184	0.885223
63.8285	0.882476
63.8385	0.879728
63.8486	0.876978
63.8586	0.874228
63.8686	0.871477
63.8787	0.868725
63.8887	0.865973
63.8987	0.86322
63.9088	0.860468
63.9188	0.857716
63.9289	0.854965
63.9389	0.852215
63.9489	0.849465
63.959	0.846717
63.969	0.84397
63.979	0.841225
63.9891	0.838482
63.9991	0.835741
64.0092	0.833003
64.0192	0.830267
64.0292	0.827534
64.0393	0.824804
64.0493	0.822077
64.0593	0.819354
64.0694	0.816635
64.0794	0.813919
64.0895	0.811208
64.0995	0.808501
64.1095	0.805799
64.1196	0.803102
64.1296	0.80041
64.1396	0.797723
64.1497	0.795042
64.1597	0.792366
64.1698	0.789697
64.1798	0.787033
64.1898	0.784376
64.1999	0.781726
64.2099	0.779083
64.2199	0.776447
64.23	0.773818
64.23	0.771206
64.24	0.771196
64.2501	0.768582
64.2601	0.765977
64.2701	0.763379
64.2802	0.76079
64.2902	0.758209
64.3002	0.755637
64.3103	0.753075
64.3203	0.750521
64.3304	0.747977
64.3404	0.745443
64.3504	0.742918
64.3605	0.740404
64.3705	0.737899
64.3805	0.735406
64.3906	0.732923
64.4006	0.730451
64.4107	0.72799
64.4207	0.72554
64.4307	0.723102
64.4408	0.720676
64.4508	0.718262
64.4608	0.715859
64.4709	0.713469
64.4809	0.711092
64.491	0.708727
64.501	0.706375
64.511	0.704037
64.5211	0.701711
64.5311	0.699399
64.5411	0.697101
64.5512	0.694817
64.5612	0.692547
64.5713	0.690291
64.5813	0.688049
64.5913	0.685822
64.6014	0.68361
64.6114	0.681413
64.6214	0.679231
64.6315	0.677065
64.6415	0.674914
64.6516	0.672778
64.6616	0.670659
64.6716	0.668556
64.6817	0.666468
64.6917	0.664398
64.7017	0.662344
64.7118	0.660306
64.7218	0.658286
64.7319	0.656283
64.7419	0.654297
64.7519	0.652328
64.762	0.650377
64.772	0.648444
64.782	0.646528
64.7921	0.644631
64.8021	0.642752
64.8122	0.640891
64.8222	0.639049
64.8322	0.637226
64.8423	0.635421
64.8523	0.633636
64.8623	0.631869
64.8724	0.630122
64.8824	0.628394
64.8925	0.626686
64.9025	0.624998
64.9125	0.623329
64.9226	0.621681
64.9326	0.620052
64.9426	0.618444
64.9527	0.616856
64.9627	0.615289
64.9728	0.613742
64.9828	0.612216
64.9928	0.610711
65.0029	0.609227
65.0129	0.607765
65.0229	0.606323
65.033	0.604903
65.043	0.603505
65.0531	0.602128
65.0631	0.600773
65.0731	0.599439
65.0832	0.598128
65.0932	0.596839
65.1032	0.595572
65.1133	0.594327
65.1233	0.593105
65.1334	0.591905
65.1434	0.590728
65.1534	0.589573
65.1635	0.588441
65.1735	0.587333
65.1835	0.586247
65.1936	0.585184
65.2036	0.584144
65.2137	0.583128
65.2237	0.582135
65.2337	0.581165
65.2438	0.580219
65.2538	0.579296
65.2638	0.578397
65.2739	0.577522
65.2839	0.57667
65.294	0.575843
65.304	0.575039
65.314	0.574259
65.3241	0.573503
65.3341	0.572772
65.3441	0.572065
65.3542	0.571381
65.3642	0.570723
65.3743	0.570088
65.3843	0.569478
65.3943	0.568892
65.4044	0.568331
65.4144	0.567795
65.4244	0.567283
65.4345	0.566796
65.4445	0.566333
65.4546	0.565895
65.4646	0.565482
65.4746	0.565093
65.4847	0.56473
65.4947	0.564391
65.5047	0.564077
65.5148	0.563788
65.5248	0.563524
65.5349	0.563285
65.5449	0.563071
65.5549	0.562882
65.565	0.562718
65.575	0.562579
65.585	0.562465
65.5951	0.562376
65.6051	0.562312
65.6152	0.562273
65.6252	0.562259
65.6352	0.56227
65.6453	0.562306
65.6553	0.562368
65.6653	0.562454
65.6754	0.562565
65.6854	0.562702
65.6955	0.562863
65.7055	0.563049
65.7155	0.563261
65.7256	0.563497
65.7356	0.563758
65.7456	0.564045
65.7557	0.564356
65.7657	0.564692
65.7758	0.565053
65.7858	0.565438
65.7958	0.565849
65.8059	0.566284
65.8159	0.566744
65.8259	0.567229
65.836	0.567738
65.846	0.568272
65.8561	0.56883
65.8661	0.569413
65.8761	0.570021
65.8862	0.570653
65.8962	0.571309
65.9062	0.571989
65.9163	0.572694
65.9263	0.573423
65.9364	0.574176
65.9464	0.574953
65.9564	0.575754
65.9665	0.576579
65.9765	0.577428
65.9865	0.578301
65.9966	0.579197
66.0066	0.580117
66.0167	0.581061
66.0267	0.582028
66.0367	0.583019
66.0468	0.584033
66.0568	0.58507
66.0668	0.58613
66.0769	0.587214
66.0869	0.58832
66.097	0.589449
66.107	0.590601
66.117	0.591776
66.1271	0.592973
66.1371	0.594193
66.1471	0.595436
66.1572	0.5967
66.1672	0.597987
66.1773	0.599296
66.1873	0.600627
66.1973	0.60198
66.2074	0.603354
66.2174	0.60475
66.2274	0.606168
66.2375	0.607607
66.2475	0.609068
66.2576	0.610549
66.2676	0.612052
66.2776	0.613575
66.2877	0.61512
66.2977	0.616685
66.3077	0.61827
66.3178	0.619876
66.3278	0.621503
66.3379	0.623149
66.3479	0.624816
66.3579	0.626502
66.368	0.628208
66.378	0.629933
66.388	0.631679
66.3981	0.633443
66.4081	0.635226
66.4182	0.637029
66.4282	0.63885
66.4382	0.64069
66.4483	0.642549
66.4583	0.644426
66.4683	0.646321
66.4784	0.648235
66.4884	0.650166
66.4985	0.652115
66.5085	0.654082
66.5185	0.656066
66.5286	0.658068
66.5386	0.660086
66.5486	0.662122
66.5587	0.664174
66.5687	0.666243
66.5788	0.668328
66.5888	0.67043
66.5988	0.672547
66.6089	0.674681
66.6189	0.67683
66.6289	0.678995
66.639	0.681175
66.649	0.683371
66.6591	0.685581
66.6691	0.687806
66.6791	0.690046
66.6892	0.692301
66.6992	0.69457
66.7092	0.696852
66.7193	0.699149
66.7293	0.701459
66.7394	0.703783
66.7494	0.706121
66.7594	0.708471
66.7695	0.710834
66.7795	0.71321
66.7895	0.715599
66.7996	0.718
66.8096	0.720413
66.8197	0.722838
66.8297	0.725275
66.8397	0.727723
66.8498	0.730183
66.8598	0.732654
66.8698	0.735136
66.8799	0.737628
66.8899	0.740131
66.9	0.742644
66.91	0.745168
66.91	0.747692
66.92	0.747701
66.9301	0.750244
66.9401	0.752797
66.9501	0.755358
66.9602	0.757929
66.9702	0.760509
66.9803	0.763097
66.9903	0.765694
67.0003	0.768299
67.0104	0.770912
67.0204	0.773532
67.0304	0.776161
67.0405	0.778796
67.0505	0.781439
67.0606	0.784088
67.0706	0.786744
67.0806	0.789407
67.0907	0.792076
67.1007	0.794751
67.1107	0.797431
67.1208	0.800118
67.1308	0.802809
67.1409	0.805506
67.1509	0.808208
67.1609	0.810914
67.171	0.813625
67.181	0.81634
67.191	0.819059
67.2011	0.821781
67.2111	0.824508
67.2212	0.827237
67.2312	0.82997
67.2412	0.832705
67.2513	0.835444
67.2613	0.838184
67.2713	0.840927
67.2814	0.843672
67.2914	0.846418
67.3015	0.849166
67.3115	0.851916
67.3215	0.854666
67.3316	0.857417
67.3416	0.860169
67.3516	0.862921
67.3617	0.865674
67.3717	0.868426
67.3818	0.871178
67.3918	0.873929
67.4018	0.87668
67.4119	0.879429
67.4219	0.882177
67.4319	0.884924
67.442	0.88767
67.452	0.890413
67.4621	0.893154
67.4721	0.895893
67.4821	0.898629
67.4922	0.901362
67.5022	0.904093
67.5122	0.90682
67.5223	0.909543
67.5323	0.912263
67.5424	0.914979
67.5524	0.917691
67.5624	0.920398
67.5725	0.923101
67.5825	0.925799
67.5925	0.928492
67.6026	0.931179
67.6126	0.933861
67.6227	0.936537
67.6327	0.939208
67.6427	0.941872
67.6528	0.944529
67.6628	0.947181
67.6728	0.949825
67.6829	0.952462
67.6929	0.955092
67.703	0.957714
67.713	0.960329
67.723	0.962936
67.7331	0.965534
67.7431	0.968125
67.7531	0.970706
67.7632	0.973279
67.7732	0.975843
67.7833	0.978398
67.7933	0.980943
67.8033	0.983478
67.8134	0.986004
67.8234	0.98852
67.8334	0.991025
67.8435	0.99352
67.8535	0.996005
67.8636	0.998478
67.8736	1.00094
67.8836	1.00339
67.8937	1.00583
67.9037	1.00826
67.9137	1.01067
67.9238	1.01308
67.9338	1.01547
67.9439	1.01785
67.9539	1.02021
67.9639	1.02257
67.974	1.02491
67.984	1.02724
67.994	1.02955
68.0041	1.03185
68.0141	1.03414
68.0242	1.03641
68.0342	1.03866
68.0442	1.04091
68.0543	1.04314
68.0643	1.04535
68.0743	1.04755
68.0844	1.04973
68.0944	1.0519
68.1045	1.05405
68.1145	1.05619
68.1245	1.05831
68.1346	1.06042
68.1446	1.06251
68.1546	1.06458
68.1647	1.06664
68.1747	1.06868
68.1848	1.0707
68.1948	1.0727
68.2048	1.07469
68.2149	1.07666
68.2249	1.07862
68.2349	1.08055
68.245	1.08247
68.255	1.08437
68.2651	1.08625
68.2751	1.08811
68.2851	1.08996
68.2952	1.09178
68.3052	1.09359
68.3152	1.09538
68.3253	1.09715
68.3353	1.0989
68.3454	1.10063
68.3554	1.10234
68.3654	1.10403
68.3755	1.1057
68.3855	1.10735
68.3955	1.10898
68.4056	1.11059
68.4156	1.11218
68.4257	1.11375
68.4357	1.1153
68.4457	1.11683
68.4558	1.11834
68.4658	1.11982
68.4758	1.12129
68.4859	1.12273
68.4959	1.12416
68.506	1.12556
68.516	1.12694
68.526	1.12829
68.5361	1.12963
68.5461	1.13094
68.5561	1.13224
68.5662	1.13351
68.5762	1.13475
68.5863	1.13598
68.5963	1.13718
68.6063	1.13836
68.6164	1.13952
68.6264	1.14065
68.6364	1.14176
68.6465	1.14285
68.6565	1.14392
68.6666	1.14496
68.6766	1.14598
68.6866	1.14698
68.6967	1.14795
68.7067	1.1489
68.7167	1.14982
68.7268	1.15073
68.7368	1.1516
68.7469	1.15246
68.7569	1.15329
68.7669	1.1541
68.777	1.15488
68.787	1.15564
68.797	1.15637
68.8071	1.15708
68.8171	1.15777
68.8272	1.15843
68.8372	1.15907
68.8472	1.15968
68.8573	1.16027
68.8673	1.16083
68.8773	1.16137
68.8874	1.16189
68.8974	1.16238
68.9075	1.16284
68.9175	1.16328
68.9275	1.1637
68.9376	1.16409
68.9476	1.16446
68.9576	1.1648
68.9677	1.16512
68.9777	1.16541
68.9878	1.16568
68.9978	1.16592
69.0078	1.16614
69.0179	1.16633
69.0279	1.16649
69.0379	1.16664
69.048	1.16675
69.058	1.16685
69.0681	1.16691
69.0781	1.16696
69.0881	1.16697
69.0982	1.16696
69.1082	1.16693
69.1182	1.16687
69.1283	1.16679
69.1383	1.16668
69.1484	1.16655
69.1584	1.16639
69.1684	1.16621
69.1785	1.166
69.1885	1.16576
69.1985	1.16551
69.2086	1.16522
69.2186	1.16492
69.2287	1.16458
69.2387	1.16422
69.2487	1.16384
69.2588	1.16343
69.2688	1.163
69.2788	1.16255
69.2889	1.16206
69.2989	1.16156
69.309	1.16103
69.319	1.16047
69.329	1.15989
69.3391	1.15929
69.3491	1.15866
69.3591	1.158
69.3692	1.15733
69.3792	1.15663
69.3893	1.1559
69.3993	1.15515
69.4093	1.15438
69.4194	1.15358
69.4294	1.15275
69.4394	1.15191
69.4495	1.15104
69.4595	1.15015
69.4696	1.14923
69.4796	1.14829
69.4896	1.14732
69.4997	1.14634
69.5097	1.14532
69.5197	1.14429
69.5298	1.14323
69.5398	1.14215
69.5499	1.14105
69.5599	1.13992
69.5699	1.13877
69.58	1.1376
69.58	1.13641
69.59	1.13641
69.6	1.13519
69.6101	1.13395
69.6201	1.13269
69.6302	1.1314
69.6402	1.1301
69.6502	1.12877
69.6603	1.12742
69.6703	1.12605
69.6803	1.12465
69.6904	1.12324
69.7004	1.1218
69.7105	1.12034
69.7205	1.11887
69.7305	1.11737
69.7406	1.11584
69.7506	1.1143
69.7606	1.11274
69.7707	1.11116
69.7807	1.10955
69.7908	1.10793
69.8008	1.10629
69.8108	1.10462
69.8209	1.10294
69.8309	1.10123
69.8409	1.09951
69.851	1.09777
69.861	1.09601
69.8711	1.09422
69.8811	1.09242
69.8911	1.09061
69.9012	1.08877
69.9112	1.08691
69.9213	1.08504
69.9313	1.08314
69.9413	1.08123
69.9514	1.0793
69.9614	1.07736
69.9714	1.07539
69.9815	1.07341
69.9915	1.07141
70.0016	1.06939
70.0116	1.06736
70.0216	1.06531
70.0317	1.06324
70.0417	1.06116
70.0517	1.05906
70.0618	1.05694
70.0718	1.05481
70.0819	1.05267
70.0919	1.0505
70.1019	1.04832
70.112	1.04613
70.122	1.04392
70.132	1.0417
70.1421	1.03946
70.1521	1.03721
70.1622	1.03494
70.1722	1.03266
70.1822	1.03036
70.1923	1.02806
70.2023	1.02573
70.2123	1.0234
70.2224	1.02105
70.2324	1.01869
70.2425	1.01631
70.2525	1.01393
70.2625	1.01153
70.2726	1.00912
70.2826	1.00669
70.2926	1.00426
70.3027	1.00181
70.3127	0.999351
70.3228	0.996881
70.3328	0.994401
70.3428	0.99191
70.3529	0.989408
70.3629	0.986896
70.3729	0.984374
70.383	0.981842
70.393	0.9793
70.4031	0.976748
70.4131	0.974188
70.4231	0.971618
70.4332	0.969039
70.4432	0.966452
70.4532	0.963857
70.4633	0.961253
70.4733	0.958641
70.4834	0.956021
70.4934	0.953394
70.5034	0.950759
70.5135	0.948117
70.5235	0.945469
70.5335	0.942813
70.5436	0.940151
70.5536	0.937483
70.5637	0.934809
70.5737	0.932129
70.5837	0.929444
70.5938	0.926753
70.6038	0.924057
70.6138	0.921356
70.6239	0.91865
70.6339	0.91594
70.644	0.913225
70.654	0.910507
70.664	0.907784
70.6741	0.905059
70.6841	0.902329
70.6941	0.899597
70.7042	0.896862
70.7142	0.894124
70.7243	0.891383
70.7343	0.888641
70.7443	0.885896
70.7544	0.88315
70.7644	0.880402
70.7744	0.877653
70.7845	0.874903
70.7945	0.872152
70.8046	0.8694
70.8146	0.866648
70.8246	0.863896
70.8347	0.861143
70.8447	0.858391
70.8547	0.85564
70.8648	0.852889
70.8748	0.85014
70.8849	0.847391
70.8949	0.844644
70.9049	0.841899
70.915	0.839155
70.925	0.836414
70.935	0.833674
70.9451	0.830938
70.9551	0.828204
70.9652	0.825473
70.9752	0.822746
70.9852	0.820022
70.9953	0.817302
71.0053	0.814585
71.0153	0.811873
71.0254	0.809165
71.0354	0.806462
71.0455	0.803763
71.0555	0.80107
71.0655	0.798382
71.0756	0.795699
71.0856	0.793022
71.0956	0.790351
71.1057	0.787686
71.1157	0.785028
71.1258	0.782376
71.1358	0.779731
71.1458	0.777093
71.1559	0.774462
71.1659	0.771839
71.1759	0.769223
71.186	0.766615
71.196	0.764016
71.2061	0.761424
71.2161	0.758841
71.2261	0.756268
71.2362	0.753703
71.2462	0.751147
71.2562	0.7486
71.2663	0.746064
71.2763	0.743537
71.2864	0.74102
71.2964	0.738513
71.3064	0.736017
71.3165	0.733531
71.3265	0.731056
71.3365	0.728593
71.3466	0.72614
71.3566	0.723699
71.3667	0.72127
71.3767	0.718853
71.3867	0.716448
71.3968	0.714055
71.4068	0.711674
71.4168	0.709306
71.4269	0.706951
71.4369	0.704609
71.447	0.702281
71.457	0.699965
71.467	0.697664
71.4771	0.695376
71.4871	0.693102
71.4971	0.690843
71.5072	0.688598
71.5172	0.686367
71.5273	0.684151
71.5373	0.681951
71.5473	0.679765
71.5574	0.677595
71.5674	0.67544
71.5774	0.673301
71.5875	0.671177
71.5975	0.66907
71.6076	0.666979
71.6176	0.664904
71.6276	0.662846
71.6377	0.660805
71.6477	0.65878
71.6577	0.656773
71.6678	0.654782
71.6778	0.652809
71.6879	0.650854
71.6979	0.648916
71.7079	0.646997
71.718	0.645095
71.728	0.643211
71.738	0.641346
71.7481	0.6395
71.7581	0.637672
71.7682	0.635862
71.7782	0.634072
71.7882	0.632301
71.7983	0.630549
71.8083	0.628816
71.8183	0.627103
71.8284	0.62541
71.8384	0.623737
71.8485	0.622083
71.8585	0.62045
71.8685	0.618837
71.8786	0.617244
71.8886	0.615671
71.8986	0.61412
71.9087	0.612589
71.9187	0.611079
71.9288	0.60959
71.9388	0.608122
71.9488	0.606675
71.9589	0.60525
71.9689	0.603846
71.9789	0.602464
71.989	0.601103
71.999	0.599765
72.0091	0.598448
72.0191	0.597153
72.0291	0.595881
72.0392	0.594631
72.0492	0.593403
72.0592	0.592197
72.0693	0.591015
72.0793	0.589854
72.0894	0.588717
72.0994	0.587603
72.1094	0.586511
72.1195	0.585443
72.1295	0.584397
72.1395	0.583375
72.1496	0.582376
72.1596	0.581401
72.1697	0.580449
72.1797	0.57952
72.1897	0.578615
72.1998	0.577734
72.2098	0.576877
72.2198	0.576043
72.2299	0.575234
72.2399	0.574448
72.25	0.573687
72.26	0.572949
72.26	0.572239
72.27	0.572236
72.2801	0.571547
72.2901	0.570882
72.3001	0.570242
72.3102	0.569626
72.3202	0.569034
72.3303	0.568467
72.3403	0.567924
72.3503	0.567406
72.3604	0.566913
72.3704	0.566444
72.3804	0.566
72.3905	0.565581
72.4005	0.565186
72.4106	0.564817
72.4206	0.564472
72.4306	0.564152
72.4407	0.563857
72.4507	0.563587
72.4607	0.563342
72.4708	0.563121
72.4808	0.562926
72.4909	0.562756
72.5009	0.562611
72.5109	0.56249
72.521	0.562395
72.531	0.562325
72.541	0.56228
72.5511	0.56226
72.5611	0.562265
72.5712	0.562295
72.5812	0.56235
72.5912	0.56243
72.6013	0.562536
72.6113	0.562666
72.6213	0.562821
72.6314	0.563001
72.6414	0.563207
72.6515	0.563437
72.6615	0.563692
72.6715	0.563972
72.6816	0.564277
72.6916	0.564607
72.7016	0.564962
72.7117	0.565341
72.7217	0.565746
72.7318	0.566175
72.7418	0.566629
72.7518	0.567108
72.7619	0.567611
72.7719	0.568139
72.7819	0.568691
72.792	0.569268
72.802	0.569869
72.8121	0.570495
72.8221	0.571145
72.8321	0.57182
72.8422	0.572519
72.8522	0.573242
72.8622	0.573989
72.8723	0.57476
72.8823	0.575555
72.8924	0.576375
72.9024	0.577218
72.9124	0.578084
72.9225	0.578975
72.9325	0.579889
72.9425	0.580827
72.9526	0.581789
72.9626	0.582774
72.9727	0.583782
72.9827	0.584813
72.9927	0.585868
73.0028	0.586946
73.0128	0.588046
73.0228	0.58917
73.0329	0.590316
73.0429	0.591486
73.053	0.592678
73.063	0.593892
73.073	0.595129
73.0831	0.596388
73.0931	0.597669
73.1031	0.598973
73.1132	0.600298
73.1232	0.601646
73.1333	0.603015
73.1433	0.604406
73.1533	0.605818
73.1634	0.607252
73.1734	0.608707
73.1834	0.610184
73.1935	0.611681
73.2035	0.6132
73.2136	0.614739
73.2236	0.616299
73.2336	0.617879
73.2437	0.61948
73.2537	0.621102
73.2637	0.622743
73.2738	0.624405
73.2838	0.626086
73.2939	0.627787
73.3039	0.629508
73.3139	0.631249
73.324	0.633008
73.334	0.634787
73.344	0.636585
73.3541	0.638402
73.3641	0.640237
73.3742	0.642091
73.3842	0.643964
73.3942	0.645855
73.4043	0.647764
73.4143	0.649691
73.4243	0.651635
73.4344	0.653598
73.4444	0.655578
73.4545	0.657575
73.4645	0.659589
73.4745	0.661621
73.4846	0.663669
73.4946	0.665734
73.5046	0.667815
73.5147	0.669912
73.5247	0.672026
73.5348	0.674156
73.5448	0.676301
73.5548	0.678462
73.5649	0.680639
73.5749	0.682831
73.5849	0.685037
73.595	0.687259
73.605	0.689496
73.6151	0.691746
73.6251	0.694012
73.6351	0.696291
73.6452	0.698584
73.6552	0.700891
73.6652	0.703212
73.6753	0.705546
73.6853	0.707893
73.6954	0.710253
73.7054	0.712626
73.7154	0.715012
73.7255	0.71741
73.7355	0.71982
73.7455	0.722242
73.7556	0.724676
73.7656	0.727122
73.7757	0.729578
73.7857	0.732047
73.7957	0.734526
73.8058	0.737016
73.8158	0.739516
73.8258	0.742027
73.8359	0.744548
73.8459	0.747079
73.856	0.749619
73.866	0.75217
73.876	0.754729
73.8861	0.757298
73.8961	0.759875
73.9061	0.762461
73.9162	0.765056
73.9262	0.767659
73.9363	0.77027
73.9463	0.772889
73.9563	0.775515
73.9664	0.778149
73.9764	0.78079
73.9864	0.783438
73.9965	0.786092
74.0065	0.788753
74.0166	0.791421
74.0266	0.794094
74.0366	0.796773
74.0467	0.799458
74.0567	0.802148
74.0667	0.804844
74.0768	0.807544
74.0868	0.81025
74.0969	0.812959
74.1069	0.815673
74.1169	0.818391
74.127	0.821113
74.137	0.823838
74.147	0.826567
74.1571	0.829299
74.1671	0.832034
74.1772	0.834772
74.1872	0.837512
74.1972	0.840254
74.2073	0.842998
74.2173	0.845744
74.2273	0.848492
74.2374	0.851241
74.2474	0.853991
74.2575	0.856742
74.2675	0.859494
74.2775	0.862246
74.2876	0.864998
74.2976	0.867751
74.3076	0.870503
74.3177	0.873254
74.3277	0.876005
74.3378	0.878755
74.3478	0.881503
74.3578	0.884251
74.3679	0.886996
74.3779	0.88974
74.3879	0.892482
74.398	0.895221
74.408	0.897958
74.4181	0.900692
74.4281	0.903423
74.4381	0.906151
74.4482	0.908876
74.4582	0.911596
74.4682	0.914313
74.4783	0.917026
74.4883	0.919734
74.4984	0.922438
74.5084	0.925137
74.5184	0.927831
74.5285	0.93052
74.5385	0.933204
74.5485	0.935881
74.5586	0.938553
74.5686	0.941219
74.5787	0.943878
74.5887	0.946531
74.5987	0.949177
74.6088	0.951816
74.6188	0.954447
74.6288	0.957072
74.6389	0.959688
74.6489	0.962297
74.659	0.964897
74.669	0.96749
74.679	0.970074
74.6891	0.972649
74.6991	0.975215
74.7091	0.977772
74.7192	0.980319
74.7292	0.982857
74.7393	0.985385
74.7493	0.987904
74.7593	0.990412
74.7694	0.992909
74.7794	0.995396
74.7894	0.997872
74.7995	1.00034
74.8095	1.00279
74.8196	1.00523
74.8296	1.00766
74.8396	1.01008
74.8497	1.01249
74.8597	1.01488
74.8697	1.01727
74.8798	1.01964
74.8898	1.02199
74.8999	1.02434
74.9099	1.02667
74.9199	1.02898
74.93	1.03129
74.93	1.03357
74.94	1.03358
74.95	1.03585
74.9601	1.03811
74.9701	1.04036
74.9802	1.04259
74.9902	1.04481
75.0002	1.04701
75.0103	1.0492
75.0203	1.05137
75.0303	1.05353
75.0404	1.05567
75.0504	1.05779
75.0605	1.0599
75.0705	1.062
75.0805	1.06407
75.0906	1.06613
75.1006	1.06818
75.1106	1.0702
75.1207	1.07221
75.1307	1.07421
75.1408	1.07618
75.1508	1.07814
75.1608	1.08008
75.1709	1.082
75.1809	1.0839
75.1909	1.08579
75.201	1.08766
75.211	1.08951
75.2211	1.09134
75.2311	1.09315
75.2411	1.09494
75.2512	1.09671
75.2612	1.09847
75.2712	1.1002
75.2813	1.10192
75.2913	1.10361
75.3014	1.10529
75.3114	1.10695
75.3214	1.10858
75.3315	1.1102
75.3415	1.11179
75.3515	1.11337
75.3616	1.11492
75.3716	1.11646
75.3817	1.11797
75.3917	1.11946
75.4017	1.12093
75.4118	1.12238
75.4218	1.12381
75.4318	1.12521
75.4419	1.1266
75.4519	1.12796
75.462	1.1293
75.472	1.13062
75.482	1.13192
75.4921	1.1332
75.5021	1.13445
75.5121	1.13568
75.5222	1.13689
75.5322	1.13807
75.5423	1.13924
75.5523	1.14038
75.5623	1.14149
75.5724	1.14259
75.5824	1.14366
75.5924	1.14471
75.6025	1.14573
75.6125	1.14673
75.6226	1.14771
75.6326	1.14867
75.6426	1.1496
75.6527	1.15051
75.6627	1.15139
75.6727	1.15225
75.6828	1.15309
75.6928	1.1539
75.7029	1.15469
75.7129	1.15545
75.7229	1.15619
75.733	1.15691
75.743	1.1576
75.753	1.15827
75.7631	1.15891
75.7731	1.15953
75.7832	1.16013
75.7932	1.1607
75.8032	1.16124
75.8133	1.16176
75.8233	1.16226
75.8333	1.16273
75.8434	1.16318
75.8534	1.1636
75.8635	1.164
75.8735	1.16437
75.8835	1.16472
75.8936	1.16504
75.9036	1.16534
75.9136	1.16561
75.9237	1.16586
75.9337	1.16608
75.9438	1.16628
75.9538	1.16646
75.9638	1.1666
75.9739	1.16673
75.9839	1.16683
75.9939	1.1669
76.004	1.16695
76.014	1.16697
76.0241	1.16697
76.0341	1.16694
76.0441	1.16689
76.0542	1.16681
76.0642	1.16671
76.0742	1.16658
76.0843	1.16643
76.0943	1.16625
76.1044	1.16605
76.1144	1.16582
76.1244	1.16557
76.1345	1.1653
76.1445	1.16499
76.1545	1.16467
76.1646	1.16431
76.1746	1.16394
76.1847	1.16354
76.1947	1.16311
76.2047	1.16266
76.2148	1.16218
76.2248	1.16168
76.2348	1.16116
76.2449	1.16061
76.2549	1.16004
76.265	1.15944
76.275	1.15881
76.285	1.15817
76.2951	1.1575
76.3051	1.1568
76.3151	1.15608
76.3252	1.15534
76.3352	1.15457
76.3453	1.15377
76.3553	1.15296
76.3653	1.15212
76.3754	1.15125
76.3854	1.15037
76.3954	1.14946
76.4055	1.14852
76.4155	1.14756
76.4256	1.14658
76.4356	1.14557
76.4456	1.14455
76.4557	1.14349
76.4657	1.14242
76.4757	1.14132
76.4858	1.1402
76.4958	1.13906
76.5059	1.13789
76.5159	1.1367
76.5259	1.13549
76.536	1.13426
76.546	1.133
76.556	1.13172
76.5661	1.13042
76.5761	1.1291
76.5862	1.12775
76.5962	1.12639
76.6062	1.125
76.6163	1.12359
76.6263	1.12216
76.6363	1.1207
76.6464	1.11923
76.6564	1.11774
76.6665	1.11622
76.6765	1.11468
76.6865	1.11313
76.6966	1.11155
76.7066	1.10995
76.7166	1.10833
76.7267	1.10669
76.7367	1.10503
76.7468	1.10335
76.7568	1.10165
76.7668	1.09994
76.7769	1.0982
76.7869	1.09644
76.7969	1.09466
76.807	1.09287
76.817	1.09105
76.8271	1.08922
76.8371	1.08737
76.8471	1.0855
76.8572	1.08361
76.8672	1.0817
76.8772	1.07978
76.8873	1.07784
76.8973	1.07588
76.9074	1.0739
76.9174	1.0719
76.9274	1.06989
76.9375	1.06786
76.9475	1.06581
76.9575	1.06375
76.9676	1.06167
76.9776	1.05958
76.9877	1.05747
76.9977	1.05534
77.0077	1.05319
77.0178	1.05104
77.0278	1.04886
77.0378	1.04667
77.0479	1.04447
77.0579	1.04225
77.068	1.04001
77.078	1.03776
77.088	1.0355
77.0981	1.03322
77.1081	1.03093
77.1181	1.02862
77.1282	1.0263
77.1382	1.02397
77.1483	1.02163
77.1583	1.01927
77.1683	1.0169
77.1784	1.01451
77.1884	1.01212
77.1984	1.00971
77.2085	1.00729
77.2185	1.00485
77.2286	1.00241
77.2386	0.999955
77.2486	0.997488
77.2587	0.995011
77.2687	0.992522
77.2787	0.990023
77.2888	0.987513
77.2988	0.984993
77.3089	0.982464
77.3189	0.979924
77.3289	0.977375
77.339	0.974817
77.349	0.972249
77.359	0.969673
77.3691	0.967088
77.3791	0.964494
77.3892	0.961892
77.3992	0.959282
77.4092	0.956664
77.4193	0.954039
77.4293	0.951406
77.4393	0.948766
77.4494	0.946119
77.4594	0.943465
77.4695	0.940805
77.4795	0.938138
77.4895	0.935466
77.4996	0.932787
77.5096	0.930103
77.5196	0.927413
77.5297	0.924718
77.5397	0.922019
77.5498	0.919314
77.5598	0.916605
77.5698	0.913892
77.5799	0.911174
77.5899	0.908453
77.5999	0.905728
77.61	0.902999
77.61	0.900278
77.62	0.900268
77.6301	0.897533
77.6401	0.894796
77.6501	0.892056
77.6602	0.889314
77.6702	0.88657
77.6802	0.883824
77.6903	0.881077
77.7003	0.878328
77.7104	0.875578
77.7204	0.872827
77.7304	0.870075
77.7405	0.867323
77.7505	0.864571
77.7605	0.861819
77.7706	0.859067
77.7806	0.856315
77.7907	0.853564
77.8007	0.850814
77.8107	0.848065
77.8208	0.845318
77.8308	0.842572
77.8408	0.839828
77.8509	0.837086
77.8609	0.834346
77.871	0.831609
77.881	0.828875
77.891	0.826143
77.9011	0.823415
77.9111	0.82069
77.9211	0.817969
77.9312	0.815251
77.9412	0.812538
77.9513	0.809829
77.9613	0.807125
77.9713	0.804425
77.9814	0.80173
77.9914	0.799041
78.0014	0.796357
78.0115	0.793678
78.0215	0.791006
78.0316	0.788339
78.0416	0.785679
78.0516	0.783026
78.0617	0.780379
78.0717	0.777739
78.0817	0.775107
78.0918	0.772481
78.1018	0.769864
78.1119	0.767254
78.1219	0.764653
78.1319	0.762059
78.142	0.759474
78.152	0.756898
78.162	0.754331
78.1721	0.751773
78.1821	0.749224
78.1922	0.746685
78.2022	0.744156
78.2122	0.741636
78.2223	0.739127
78.2323	0.736628
78.2423	0.73414
78.2524	0.731663
78.2624	0.729196
78.2725	0.726741
78.2825	0.724297
78.2925	0.721865
78.3026	0.719445
78.3126	0.717037
78.3226	0.714641
78.3327	0.712257
78.3427	0.709886
78.3528	0.707528
78.3628	0.705183
78.3728	0.702851
78.3829	0.700532
78.3929	0.698227
78.4029	0.695936
78.413	0.693659
78.423	0.691396
78.4331	0.689147
78.4431	0.686913
78.4531	0.684694
78.4632	0.682489
78.4732	0.6803
78.4832	0.678126
78.4933	0.675967
78.5033	0.673824
78.5134	0.671697
78.5234	0.669586
78.5334	0.667491
78.5435	0.665412
78.5535	0.66335
78.5635	0.661304
78.5736	0.659275
78.5836	0.657264
78.5937	0.655269
78.6037	0.653292
78.6137	0.651332
78.6238	0.64939
78.6338	0.647466
78.6438	0.64556
78.6539	0.643672
78.6639	0.641802
78.674	0.639951
78.684	0.638118
78.694	0.636305
78.7041	0.63451
78.7141	0.632734
78.7241	0.630977
78.7342	0.62924
78.7442	0.627522
78.7543	0.625824
78.7643	0.624145
78.7743	0.622487
78.7844	0.620849
78.7944	0.61923
78.8044	0.617633
78.8145	0.616055
78.8245	0.614498
78.8346	0.612962
78.8446	0.611447
78.8546	0.609953
78.8647	0.60848
78.8747	0.607028
78.8847	0.605597
78.8948	0.604188
78.9048	0.602801
78.9149	0.601435
78.9249	0.600091
78.9349	0.598769
78.945	0.597469
78.955	0.596191
78.965	0.594935
78.9751	0.593702
78.9851	0.592491
78.9952	0.591303
79.0052	0.590137
79.0152	0.588994
79.0253	0.587874
79.0353	0.586777
79.0453	0.585703
79.0554	0.584651
79.0654	0.583624
79.0755	0.582619
79.0855	0.581638
79.0955	0.58068
79.1056	0.579746
79.1156	0.578835
79.1256	0.577948
79.1357	0.577085
79.1457	0.576246
79.1558	0.57543
79.1658	0.574639
79.1758	0.573871
79.1859	0.573128
79.1959	0.572409
79.2059	0.571714
79.216	0.571043
79.226	0.570396
79.2361	0.569774
79.2461	0.569177
79.2561	0.568604
79.2662	0.568055
79.2762	0.567531
79.2862	0.567032
79.2963	0.566557
79.3063	0.566107
79.3164	0.565681
79.3264	0.565281
79.3364	0.564905
79.3465	0.564554
79.3565	0.564228
79.3665	0.563927
79.3766	0.563651
79.3866	0.563399
79.3967	0.563173
79.4067	0.562972
79.4167	0.562795
79.4268	0.562644
79.4368	0.562518
79.4468	0.562416
79.4569	0.56234
79.4669	0.562289
79.477	0.562263
79.487	0.562261
79.497	0.562285
79.5071	0.562334
79.5171	0.562408
79.5271	0.562507
79.5372	0.562632
79.5472	0.562781
79.5573	0.562955
79.5673	0.563154
79.5773	0.563378
79.5874	0.563627
79.5974	0.563901
79.6074	0.5642
79.6175	0.564524
79.6275	0.564873
79.6376	0.565246
79.6476	0.565644
79.6576	0.566067
79.6677	0.566515
79.6777	0.566988
79.6877	0.567485
79.6978	0.568007
79.7078	0.568553
79.7179	0.569124
79.7279	0.56972
79.7379	0.570339
79.748	0.570984
79.758	0.571652
79.768	0.572345
79.7781	0.573062
79.7881	0.573803
79.7982	0.574569
79.8082	0.575358
79.8182	0.576171
79.8283	0.577009
79.8383	0.57787
79.8483	0.578754
79.8584	0.579663
79.8684	0.580595
79.8785	0.581551
79.8885	0.58253
79.8985	0.583532
79.9086	0.584558
79.9186	0.585607
79.9286	0.586679
79.9387	0.587774
79.9487	0.588892
79.9588	0.590033
79.9688	0.591197
79.9788	0.592383
79.9889	0.593592
79.9989	0.594823
80.0089	0.596077
80.019	0.597353
80.029	0.598651
80.0391	0.599971
80.0491	0.601313
80.0591	0.602677
80.0692	0.604062
80.0792	0.60547
80.0892	0.606898
80.0993	0.608348
80.1093	0.609819
80.1194	0.611312
80.1294	0.612825
80.1394	0.614359
80.1495	0.615914
80.1595	0.61749
80.1695	0.619086
80.1796	0.620702
80.1896	0.622339
80.1997	0.623995
80.2097	0.625672
80.2197	0.627368
80.2298	0.629084
80.2398	0.63082
80.2498	0.632575
80.2599	0.634349
80.2699	0.636142
80.28	0.637954
80.29	0.639785
80.29	0.641628
80.3	0.641635
80.3101	0.643503
80.3201	0.645389
80.3301	0.647294
80.3402	0.649216
80.3502	0.651157
80.3603	0.653115
80.3703	0.65509
80.3803	0.657083
80.3904	0.659093
80.4004	0.661121
80.4104	0.663165
80.4205	0.665225
80.4305	0.667303
80.4406	0.669396
80.4506	0.671506
80.4606	0.673632
80.4707	0.675773
80.4807	0.677931
80.4907	0.680103
80.5008	0.682291
80.5108	0.684495
80.5209	0.686713
80.5309	0.688945
80.5409	0.691193
80.551	0.693455
80.561	0.69573
80.571	0.69802
80.5811	0.700324
80.5911	0.702641
80.6012	0.704972
80.6112	0.707316
80.6212	0.709673
80.6313	0.712043
80.6413	0.714425
80.6513	0.71682
80.6614	0.719227
80.6714	0.721647
80.6815	0.724078
80.6915	0.72652
80.7015	0.728975
80.7116	0.73144
80.7216	0.733916
80.7316	0.736404
80.7417	0.738902
80.7517	0.74141
80.7618	0.743928
80.7718	0.746457
80.7818	0.748995
80.7919	0.751543
80.8019	0.7541
80.8119	0.756667
80.822	0.759242
80.832	0.761826
80.8421	0.764419
80.8521	0.76702
80.8621	0.769629
80.8722	0.772245
80.8822	0.77487
80.8922	0.777502
80.9023	0.780141
80.9123	0.782787
80.9224	0.78544
80.9324	0.7881
80.9424	0.790766
80.9525	0.793438
80.9625	0.796115
80.9725	0.798799
80.9826	0.801488
80.9926	0.804182
81.0027	0.806881
81.0127	0.809585
81.0227	0.812294
81.0328	0.815007
81.0428	0.817724
81.0528	0.820445
81.0629	0.823169
81.0729	0.825897
81.083	0.828629
81.093	0.831363
81.103	0.8341
81.1131	0.836839
81.1231	0.839581
81.1331	0.842325
81.1432	0.845071
81.1532	0.847818
81.1633	0.850567
81.1733	0.853316
81.1833	0.856067
81.1934	0.858819
81.2034	0.861571
81.2134	0.864323
81.2235	0.867075
81.2335	0.869827
81.2436	0.872579
81.2536	0.87533
81.2636	0.87808
81.2737	0.880829
81.2837	0.883577
81.2937	0.886323
81.3038	0.889067
81.3138	0.891809
81.3239	0.894549
81.3339	0.897287
81.3439	0.900022
81.354	0.902753
81.364	0.905482
81.374	0.908207
81.3841	0.910929
81.3941	0.913647
81.4042	0.916361
81.4142	0.91907
81.4242	0.921775
81.4343	0.924476
81.4443	0.927171
81.4543	0.929861
81.4644	0.932546
81.4744	0.935225
81.4845	0.937898
81.4945	0.940565
81.5045	0.943226
81.5146	0.94588
81.5246	0.948528
81.5346	0.951169
81.5447	0.953802
81.5547	0.956428
81.5648	0.959047
81.5748	0.961658
81.5848	0.96426
81.5949	0.966855
81.6049	0.96944
81.6149	0.972018
81.625	0.974586
81.635	0.977145
81.6451	0.979695
81.6551	0.982235
81.6651	0.984766
81.6752	0.987287
81.6852	0.989797
81.6952	0.992297
81.7053	0.994787
81.7153	0.997266
81.7254	0.999733
81.7354	1.00219
81.7454	1.00464
81.7555	1.00707
81.7655	1.00949
81.7755	1.0119
81.7856	1.0143
81.7956	1.01668
81.8057	1.01906
81.8157	1.02142
81.8257	1.02376
81.8358	1.0261
81.8458	1.02842
81.8558	1.03072
81.8659	1.03302
81.8759	1.03529
81.886	1.03756
81.896	1.03981
81.906	1.04205
81.9161	1.04427
81.9261	1.04647
81.9361	1.04866
81.9462	1.05084
81.9562	1.053
81.9663	1.05515
81.9763	1.05727
81.9863	1.05939
81.9964	1.06148
82.0064	1.06357
82.0164	1.06563
82.0265	1.06768
82.0365	1.06971
82.0466	1.07172
82.0566	1.07372
82.0666	1.0757
82.0767	1.07766
82.0867	1.0796
82.0967	1.08153
82.1068	1.08344
82.1168	1.08533
82.1269	1.0872
82.1369	1.08905
82.1469	1.09089
82.157	1.09271
82.167	1.0945
82.177	1.09628
82.1871	1.09804
82.1971	1.09978
82.2072	1.1015
82.2172	1.1032
82.2272	1.10488
82.2373	1.10654
82.2473	1.10818
82.2573	1.1098
82.2674	1.1114
82.2774	1.11298
82.2875	1.11454
82.2975	1.11608
82.3075	1.1176
82.3176	1.1191
82.3276	1.12057
82.3376	1.12203
82.3477	1.12346
82.3577	1.12487
82.3678	1.12626
82.3778	1.12763
82.3878	1.12898
82.3979	1.1303
82.4079	1.1316
82.4179	1.13289
82.428	1.13414
82.438	1.13538
82.4481	1.13659
82.4581	1.13778
82.4681	1.13895
82.4782	1.1401
82.4882	1.14122
82.4982	1.14232
82.5083	1.1434
82.5183	1.14445
82.5284	1.14548
82.5384	1.14649
82.5484	1.14747
82.5585	1.14844
82.5685	1.14937
82.5785	1.15029
82.5886	1.15118
82.5986	1.15204
82.6087	1.15288
82.6187	1.1537
82.6287	1.1545
82.6388	1.15527
82.6488	1.15601
82.6588	1.15674
82.6689	1.15743
82.6789	1.15811
82.689	1.15876
82.699	1.15938
82.709	1.15998
82.7191	1.16056
82.7291	1.16111
82.7391	1.16164
82.7492	1.16214
82.7592	1.16262
82.7693	1.16307
82.7793	1.1635
82.7893	1.1639
82.7994	1.16428
82.8094	1.16464
82.8194	1.16496
82.8295	1.16527
82.8395	1.16555
82.8496	1.1658
82.8596	1.16603
82.8696	1.16624
82.8797	1.16642
82.8897	1.16657
82.8997	1.1667
82.9098	1.1668
82.9198	1.16688
82.9299	1.16694
82.9399	1.16697
82.9499	1.16697
82.96	1.16695
82.96	1.1669
82.97	1.1669
82.98	1.16683
82.9901	1.16674
83.0001	1.16662
83.0102	1.16647
83.0202	1.1663
83.0302	1.1661
83.0403	1.16588
83.0503	1.16564
83.0603	1.16537
83.0704	1.16507
83.0804	1.16475
83.0905	1.1644
83.1005	1.16403
83.1105	1.16364
83.1206	1.16322
83.1306	1.16277
83.1406	1.1623
83.1507	1.16181
83.1607	1.16129
83.1708	1.16075
83.1808	1.16018
83.1908	1.15959
83.2009	1.15897
83.2109	1.15833
83.2209	1.15766
83.231	1.15697
83.241	1.15626
83.2511	1.15552
83.2611	1.15476
83.2711	1.15397
83.2812	1.15316
83.2912	1.15233
83.3012	1.15147
83.3113	1.15059
83.3213	1.14968
83.3314	1.14875
83.3414	1.1478
83.3514	1.14682
83.3615	1.14582
83.3715	1.1448
83.3815	1.14375
83.3916	1.14269
83.4016	1.14159
83.4117	1.14048
83.4217	1.13934
83.4317	1.13818
83.4418	1.137
83.4518	1.13579
83.4618	1.13456
83.4719	1.13331
83.4819	1.13204
83.492	1.13074
83.502	1.12942
83.512	1.12808
83.5221	1.12672
83.5321	1.12534
83.5421	1.12394
83.5522	1.12251
83.5622	1.12106
83.5723	1.11959
83.5823	1.1181
83.5923	1.11659
83.6024	1.11506
83.6124	1.11351
83.6224	1.11194
83.6325	1.11034
83.6425	1.10873
83.6526	1.10709
83.6626	1.10544
83.6726	1.10377
83.6827	1.10207
83.6927	1.10036
83.7027	1.09863
83.7128	1.09687
83.7228	1.0951
83.7329	1.09331
83.7429	1.0915
83.7529	1.08967
83.763	1.08782
83.773	1.08596
83.783	1.08407
83.7931	1.08217
83.8031	1.08025
83.8132	1.07831
83.8232	1.07636
83.8332	1.07438
83.8433	1.07239
83.8533	1.07039
83.8633	1.06836
83.8734	1.06632
83.8834	1.06426
83.8935	1.06218
83.9035	1.06009
83.9135	1.05799
83.9236	1.05586
83.9336	1.05372
83.9436	1.05157
83.9537	1.0494
83.9637	1.04721
83.9738	1.04501
83.9838	1.04279
83.9938	1.04056
84.0039	1.03832
84.0139	1.03606
84.0239	1.03378
84.034	1.03149
84.044	1.02919
84.0541	1.02688
84.0641	1.02455
84.0741	1.0222
84.0842	1.01985
84.0942	1.01748
84.1042	1.0151
84.1143	1.01271
84.1243	1.0103
84.1344	1.00788
84.1444	1.00545
84.1544	1.00301
84.1645	1.00056
84.1745	0.998095
84.1845	0.995619
84.1946	0.993134
84.2046	0.990637
84.2147	0.98813
84.2247	0.985613
84.2347	0.983085
84.2448	0.980548
84.2548	0.978002
84.2648	0.975445
84.2749	0.97288
84.2849	0.970306
84.295	0.967723
84.305	0.965131
84.315	0.962531
84.3251	0.959923
84.3351	0.957307
84.3451	0.954684
84.3552	0.952053
84.3652	0.949415
84.3753	0.946769
84.3853	0.944117
84.3953	0.941458
84.4054	0.938793
84.4154	0.936122
84.4254	0.933445
84.4355	0.930762
84.4455	0.928074
84.4556	0.92538
84.4656	0.922682
84.4756	0.919978
84.4857	0.91727
84.4957	0.914558
84.5057	0.911841
84.5158	0.909121
84.5258	0.906397
84.5359	0.903669
84.5459	0.900938
84.5559	0.898204
84.566	0.895468
84.576	0.892728
84.586	0.889987
84.5961	0.887243
84.6061	0.884498
84.6162	0.881751
84.6262	0.879002
84.6362	0.876252
84.6463	0.873502
84.6563	0.87075
84.6663	0.867998
84.6764	0.865246
84.6864	0.862494
84.6965	0.859742
84.7065	0.85699
84.7165	0.854239
84.7266	0.851489
84.7366	0.84874
84.7466	0.845992
84.7567	0.843246
84.7667	0.840501
84.7768	0.837759
84.7868	0.835018
84.7968	0.83228
84.8069	0.829545
84.8169	0.826813
84.8269	0.824084
84.837	0.821358
84.847	0.818636
84.8571	0.815918
84.8671	0.813203
84.8771	0.810493
84.8872	0.807788
84.8972	0.805087
84.9072	0.802391
84.9173	0.7997
84.9273	0.797015
84.9374	0.794335
84.9474	0.791661
84.9574	0.788993
84.9675	0.786331
84.9775	0.783676
84.9875	0.781028
84.9976	0.778386
85.0076	0.775752
85.0177	0.773125
85.0277	0.770505
85.0377	0.767894
85.0478	0.76529
85.0578	0.762695
85.0678	0.760108
85.0779	0.757529
85.0879	0.75496
85.098	0.7524
85.108	0.749849
85.118	0.747307
85.1281	0.744775
85.1381	0.742253
85.1481	0.739742
85.1582	0.73724
85.1682	0.734749
85.1783	0.732269
85.1883	0.7298
85.1983	0.727342
85.2084	0.724896
85.2184	0.722461
85.2284	0.720038
85.2385	0.717626
85.2485	0.715227
85.2586	0.712841
85.2686	0.710466
85.2786	0.708105
85.2887	0.705757
85.2987	0.703422
85.3087	0.7011
85.3188	0.698791
85.3288	0.696497
85.3389	0.694216
85.3489	0.69195
85.3589	0.689698
85.369	0.68746
85.379	0.685237
85.3891	0.683029
85.3991	0.680836
85.4091	0.678658
85.4192	0.676495
85.4292	0.674348
85.4392	0.672217
85.4493	0.670102
85.4593	0.668003
85.4694	0.66592
85.4794	0.663854
85.4894	0.661804
85.4995	0.659771
85.5095	0.657756
85.5195	0.655757
85.5296	0.653775
85.5396	0.651811
85.5497	0.649865
85.5597	0.647937
85.5697	0.646026
85.5798	0.644133
85.5898	0.642259
85.5998	0.640403
85.6099	0.638566
85.6199	0.636748
85.63	0.634948
85.64	0.633168
85.64	0.631413
85.65	0.631406
85.6601	0.629664
85.6701	0.627942
85.6801	0.626239
85.6902	0.624555
85.7002	0.622892
85.7103	0.621249
85.7203	0.619626
85.7303	0.618023
85.7404	0.61644
85.7504	0.614879
85.7604	0.613337
85.7705	0.611817
85.7805	0.610318
85.7906	0.608839
85.8006	0.607382
85.8106	0.605946
85.8207	0.604532
85.8307	0.603139
85.8407	0.601768
85.8508	0.600419
85.8608	0.599091
85.8709	0.597786
85.8809	0.596502
85.8909	0.595241
85.901	0.594002
85.911	0.592786
85.921	0.591592
85.9311	0.590421
85.9411	0.589272
85.9512	0.588147
85.9612	0.587044
85.9712	0.585964
85.9813	0.584907
85.9913	0.583874
86.0013	0.582863
86.0114	0.581876
86.0214	0.580913
86.0315	0.579973
86.0415	0.579056
86.0515	0.578164
86.0616	0.577295
86.0716	0.576449
86.0816	0.575628
86.0917	0.574831
86.1017	0.574057
86.1118	0.573308
86.1218	0.572583
86.1318	0.571882
86.1419	0.571205
86.1519	0.570553
86.1619	0.569925
86.172	0.569321
86.182	0.568742
86.1921	0.568187
86.2021	0.567657
86.2121	0.567152
86.2222	0.566671
86.2322	0.566215
86.2422	0.565784
86.2523	0.565377
86.2623	0.564995
86.2724	0.564638
86.2824	0.564306
86.2924	0.563999
86.3025	0.563716
86.3125	0.563459
86.3225	0.563226
86.3326	0.563019
86.3426	0.562836
86.3527	0.562679
86.3627	0.562546
86.3727	0.562439
86.3828	0.562356
86.3928	0.562299
86.4028	0.562267
86.4129	0.562259
86.4229	0.562277
86.433	0.56232
86.443	0.562388
86.453	0.562481
86.4631	0.562599
86.4731	0.562742
86.4831	0.56291
86.4932	0.563103
86.5032	0.563321
86.5133	0.563564
86.5233	0.563832
86.5333	0.564124
86.5434	0.564442
86.5534	0.564785
86.5634	0.565152
86.5735	0.565544
86.5835	0.565961
86.5936	0.566403
86.6036	0.56687
86.6136	0.567361
86.6237	0.567877
86.6337	0.568417
86.6437	0.568982
86.6538	0.569571
86.6638	0.570185
86.6739	0.570823
86.6839	0.571486
86.6939	0.572173
86.704	0.572884
86.714	0.573619
86.724	0.574379
86.7341	0.575162
86.7441	0.57597
86.7542	0.576801
86.7642	0.577656
86.7742	0.578535
86.7843	0.579438
86.7943	0.580364
86.8043	0.581314
86.8144	0.582287
86.8244	0.583284
86.8345	0.584304
86.8445	0.585347
86.8545	0.586414
86.8646	0.587503
86.8746	0.588616
86.8846	0.589751
86.8947	0.590909
86.9047	0.59209
86.9148	0.593293
86.9248	0.594519
86.9348	0.595767
86.9449	0.597038
86.9549	0.59833
86.9649	0.599645
86.975	0.600982
86.985	0.60234
86.9951	0.603721
87.0051	0.605122
87.0151	0.606546
87.0252	0.607991
87.0352	0.609457
87.0452	0.610944
87.0553	0.612452
87.0653	0.613981
87.0754	0.615531
87.0854	0.617101
87.0954	0.618692
87.1055	0.620304
87.1155	0.621935
87.1255	0.623587
87.1356	0.625259
87.1456	0.62695
87.1557	0.628661
87.1657	0.630392
87.1757	0.632142
87.1858	0.633912
87.1958	0.6357
87.2058	0.637508
87.2159	0.639334
87.2259	0.641179
87.236	0.643043
87.246	0.644925
87.256	0.646825
87.2661	0.648743
87.2761	0.650679
87.2861	0.652633
87.2962	0.654604
87.3062	0.656593
87.3163	0.658599
87.3263	0.660622
87.3363	0.662662
87.3464	0.664718
87.3564	0.666791
87.3664	0.668881
87.3765	0.670987
87.3865	0.673109
87.3966	0.675247
87.4066	0.6774
87.4166	0.679569
87.4267	0.681753
87.4367	0.683953
87.4467	0.686167
87.4568	0.688396
87.4668	0.69064
87.4769	0.692898
87.4869	0.695171
87.4969	0.697457
87.507	0.699758
87.517	0.702072
87.527	0.704399
87.5371	0.70674
87.5471	0.709094
87.5572	0.71146
87.5672	0.71384
87.5772	0.716232
87.5873	0.718636
87.5973	0.721052
87.6073	0.72348
87.6174	0.72592
87.6274	0.728371
87.6375	0.730834
87.6475	0.733308
87.6575	0.735792
87.6676	0.738288
87.6776	0.740793
87.6876	0.743309
87.6977	0.745836
87.7077	0.748371
87.7178	0.750917
87.7278	0.753472
87.7378	0.756036
87.7479	0.758609
87.7579	0.761191
87.7679	0.763782
87.778	0.766381
87.788	0.768988
87.7981	0.771603
87.8081	0.774225
87.8181	0.776855
87.8282	0.779493
87.8382	0.782137
87.8482	0.784789
87.8583	0.787447
87.8683	0.790111
87.8784	0.792781
87.8884	0.795458
87.8984	0.79814
87.9085	0.800828
87.9185	0.803521
87.9285	0.806219
87.9386	0.808922
87.9486	0.811629
87.9587	0.814341
87.9687	0.817057
87.9787	0.819777
87.9888	0.822501
87.9988	0.825228
88.0088	0.827958
88.0189	0.830692
88.0289	0.833428
88.039	0.836167
88.049	0.838908
88.059	0.841651
88.0691	0.844397
88.0791	0.847144
88.0891	0.849892
88.0992	0.852642
88.1092	0.855392
88.1193	0.858144
88.1293	0.860895
88.1393	0.863648
88.1494	0.8664
88.1594	0.869152
88.1694	0.871904
88.1795	0.874655
88.1895	0.877405
88.1996	0.880155
88.2096	0.882903
88.2196	0.885649
88.2297	0.888394
88.2397	0.891137
88.2497	0.893877
88.2598	0.896615
88.2698	0.899351
88.2799	0.902083
88.2899	0.904813
88.2999	0.907539
88.31	0.910262
88.31	0.91297
88.32	0.912981
88.33	0.915695
88.3401	0.918406
88.3501	0.921112
88.3602	0.923813
88.3702	0.92651
88.3802	0.929201
88.3903	0.931888
88.4003	0.934568
88.4103	0.937243
88.4204	0.939911
88.4304	0.942574
88.4405	0.94523
88.4505	0.947879
88.4605	0.950522
88.4706	0.953157
88.4806	0.955785
88.4906	0.958405
88.5007	0.961018
88.5107	0.963622
88.5208	0.966219
88.5308	0.968807
88.5408	0.971386
88.5509	0.973957
88.5609	0.976518
88.5709	0.97907
88.581	0.981613
88.591	0.984146
88.6011	0.986669
88.6111	0.989182
88.6211	0.991685
88.6312	0.994177
88.6412	0.996658
88.6512	0.999129
88.6613	1.00159
88.6713	1.00404
88.6814	1.00647
88.6914	1.0089
88.7014	1.01131
88.7115	1.01371
88.7215	1.0161
88.7315	1.01847
88.7416	1.02084
88.7516	1.02319
88.7617	1.02552
88.7717	1.02785
88.7817	1.03016
88.7918	1.03245
88.8018	1.03474
88.8118	1.037
88.8219	1.03926
88.8319	1.0415
88.842	1.04372
88.852	1.04593
88.862	1.04813
88.8721	1.05031
88.8821	1.05247
88.8921	1.05462
88.9022	1.05675
88.9122	1.05887
88.9223	1.06097
88.9323	1.06306
88.9423	1.06512
88.9524	1.06718
88.9624	1.06921
88.9724	1.07123
88.9825	1.07323
88.9925	1.07521
89.0026	1.07718
89.0126	1.07913
89.0226	1.08106
89.0327	1.08297
89.0427	1.08487
89.0527	1.08674
89.0628	1.0886
89.0728	1.09044
89.0829	1.09226
89.0929	1.09406
89.1029	1.09585
89.113	1.09761
89.123	1.09935
89.133	1.10108
89.1431	1.10279
89.1531	1.10447
89.1632	1.10614
89.1732	1.10778
89.1832	1.10941
89.1933	1.11101
89.2033	1.1126
89.2133	1.11416
89.2234	1.11571
89.2334	1.11723
89.2435	1.11873
89.2535	1.12021
89.2635	1.12167
89.2736	1.12311
89.2836	1.12453
89.2936	1.12592
89.3037	1.1273
89.3137	1.12865
89.3238	1.12998
89.3338	1.13129
89.3438	1.13257
89.3539	1.13384
89.3639	1.13508
89.3739	1.1363
89.384	1.13749
89.394	1.13867
89.4041	1.13982
89.4141	1.14095
89.4241	1.14205
89.4342	1.14314
89.4442	1.1442
89.4542	1.14523
89.4643	1.14625
89.4743	1.14724
89.4844	1.1482
89.4944	1.14914
89.5044	1.15006
89.5145	1.15096
89.5245	1.15183
89.5345	1.15268
89.5446	1.1535
89.5546	1.1543
89.5647	1.15508
89.5747	1.15583
89.5847	1.15656
89.5948	1.15726
89.6048	1.15794
89.6148	1.1586
89.6249	1.15923
89.6349	1.15984
89.645	1.16042
89.655	1.16098
89.665	1.16151
89.6751	1.16202
89.6851	1.1625
89.6951	1.16296
89.7052	1.1634
89.7152	1.16381
89.7253	1.16419
89.7353	1.16455
89.7453	1.16489
89.7554	1.1652
89.7654	1.16548
89.7754	1.16574
89.7855	1.16598
89.7955	1.16619
89.8056	1.16637
89.8156	1.16653
89.8256	1.16667
89.8357	1.16678
89.8457	1.16687
89.8557	1.16693
89.8658	1.16696
89.8758	1.16697
89.8859	1.16696
89.8959	1.16692
89.9059	1.16685
89.916	1.16676
89.926	1.16665
89.936	1.16651
89.9461	1.16634
89.9561	1.16615
89.9662	1.16594
89.9762	1.1657
89.9862	1.16543
89.9963	1.16514
90.0063	1.16483
90.0163	1.16449
90.0264	1.16413
90.0364	1.16374
90.0465	1.16332
90.0565	1.16288
90.0665	1.16242
90.0766	1.16193
90.0866	1.16142
90.0966	1.16088
90.1067	1.16032
90.1167	1.15973
90.1268	1.15912
90.1368	1.15849
90.1468	1.15783
90.1569	1.15714
90.1669	1.15644
90.1769	1.1557
90.187	1.15495
90.197	1.15417
90.2071	1.15336
90.2171	1.15253
90.2271	1.15168
90.2372	1.15081
90.2472	1.14991
90.2572	1.14898
90.2673	1.14804
90.2773	1.14706
90.2874	1.14607
90.2974	1.14505
90.3074	1.14401
90.3175	1.14295
90.3275	1.14186
90.3375	1.14075
90.3476	1.13962
90.3576	1.13847
90.3677	1.13729
90.3777	1.13609
90.3877	1.13486
90.3978	1.13362
90.4078	1.13235
90.4178	1.13106
90.4279	1.12975
90.4379	1.12841
90.448	1.12706
90.458	1.12568
90.468	1.12428
90.4781	1.12286
90.4881	1.12142
90.4981	1.11996
90.5082	1.11847
90.5182	1.11697
90.5283	1.11544
90.5383	1.11389
90.5483	1.11232
90.5584	1.11074
90.5684	1.10913
90.5784	1.1075
90.5885	1.10585
90.5985	1.10418
90.6086	1.10249
90.6186	1.10078
90.6286	1.09905
90.6387	1.0973
90.6487	1.09554
90.6587	1.09375
90.6688	1.09195
90.6788	1.09012
90.6889	1.08828
90.6989	1.08642
90.7089	1.08454
90.719	1.08264
90.729	1.08072
90.739	1.07879
90.7491	1.07684
90.7591	1.07487
90.7692	1.07288
90.7792	1.07088
90.7892	1.06886
90.7993	1.06682
90.8093	1.06477
90.8193	1.0627
90.8294	1.06061
90.8394	1.0585
90.8495	1.05638
90.8595	1.05425
90.8695	1.0521
90.8796	1.04993
90.8896	1.04775
90.8996	1.04555
90.9097	1.04334
90.9197	1.04111
90.9298	1.03887
90.9398	1.03661
90.9498	1.03434
90.9599	1.03206
90.9699	1.02976
90.9799	1.02744
90.99	1.02512
90.99	1.02279
91	1.02278
91.0101	1.02043
91.0201	1.01806
91.0301	1.01568
91.0402	1.01329
91.0502	1.01089
91.0602	1.00848
91.0703	1.00605
91.0803	1.00361
91.0904	1.00116
91.1004	0.9987
91.1104	0.996228
91.1205	0.993744
91.1305	0.99125
91.1405	0.988746
91.1506	0.986231
91.1606	0.983706
91.1707	0.981172
91.1807	0.978627
91.1907	0.976073
91.2008	0.97351
91.2108	0.970938
91.2208	0.968357
91.2309	0.965768
91.2409	0.96317
91.251	0.960564
91.261	0.95795
91.271	0.955328
91.2811	0.952699
91.2911	0.950063
91.3011	0.947419
91.3112	0.944768
91.3212	0.942111
91.3313	0.939448
91.3413	0.936778
91.3513	0.934102
91.3614	0.931421
91.3714	0.928734
91.3814	0.926042
91.3915	0.923344
91.4015	0.920642
91.4116	0.917935
91.4216	0.915224
91.4316	0.912508
91.4417	0.909789
91.4517	0.907065
91.4617	0.904338
91.4718	0.901608
91.4818	0.898875
91.4919	0.896139
91.5019	0.893401
91.5119	0.89066
91.522	0.887917
91.532	0.885172
91.542	0.882425
91.5521	0.879677
91.5621	0.876927
91.5722	0.874177
91.5822	0.871425
91.5922	0.868674
91.6023	0.865921
91.6123	0.863169
91.6223	0.860417
91.6324	0.857665
91.6424	0.854914
91.6525	0.852163
91.6625	0.849414
91.6725	0.846666
91.6826	0.843919
91.6926	0.841174
91.7026	0.838431
91.7127	0.83569
91.7227	0.832952
91.7328	0.830216
91.7428	0.827483
91.7528	0.824753
91.7629	0.822027
91.7729	0.819304
91.7829	0.816584
91.793	0.813869
91.803	0.811158
91.8131	0.808451
91.8231	0.805749
91.8331	0.803052
91.8432	0.80036
91.8532	0.797673
91.8632	0.794992
91.8733	0.792317
91.8833	0.789647
91.8934	0.786984
91.9034	0.784327
91.9134	0.781677
91.9235	0.779034
91.9335	0.776398
91.9435	0.773769
91.9536	0.771147
91.9636	0.768534
91.9737	0.765928
91.9837	0.763331
91.9937	0.760742
92.0038	0.758161
92.0138	0.75559
92.0238	0.753027
92.0339	0.750474
92.0439	0.74793
92.054	0.745396
92.064	0.742871
92.074	0.740357
92.0841	0.737853
92.0941	0.73536
92.1041	0.732877
92.1142	0.730405
92.1242	0.727944
92.1343	0.725495
92.1443	0.723057
92.1543	0.720631
92.1644	0.718217
92.1744	0.715815
92.1844	0.713425
92.1945	0.711048
92.2045	0.708683
92.2146	0.706332
92.2246	0.703993
92.2346	0.701668
92.2447	0.699357
92.2547	0.697059
92.2647	0.694775
92.2748	0.692505
92.2848	0.690249
92.2949	0.688008
92.3049	0.685781
92.3149	0.683569
92.325	0.681372
92.335	0.679191
92.345	0.677024
92.3551	0.674874
92.3651	0.672739
92.3752	0.67062
92.3852	0.668517
92.3952	0.66643
92.4053	0.664359
92.4153	0.662306
92.4253	0.660269
92.4354	0.658249
92.4454	0.656246
92.4555	0.65426
92.4655	0.652292
92.4755	0.650341
92.4856	0.648408
92.4956	0.646493
92.5056	0.644596
92.5157	0.642717
92.5257	0.640857
92.5358	0.639015
92.5458	0.637192
92.5558	0.635388
92.5659	0.633603
92.5759	0.631837
92.5859	0.63009
92.596	0.628362
92.606	0.626655
92.6161	0.624967
92.6261	0.623298
92.6361	0.62165
92.6462	0.620022
92.6562	0.618414
92.6662	0.616827
92.6763	0.61526
92.6863	0.613714
92.6964	0.612188
92.7064	0.610684
92.7164	0.6092
92.7265	0.607738
92.7365	0.606297
92.7465	0.604877
92.7566	0.603479
92.7666	0.602102
92.7767	0.600748
92.7867	0.599415
92.7967	0.598104
92.8068	0.596815
92.8168	0.595549
92.8268	0.594304
92.8369	0.593082
92.8469	0.591883
92.857	0.590706
92.867	0.589552
92.877	0.588421
92.8871	0.587312
92.8971	0.586227
92.9071	0.585164
92.9172	0.584125
92.9272	0.583109
92.9373	0.582116
92.9473	0.581147
92.9573	0.580201
92.9674	0.579279
92.9774	0.578381
92.9874	0.577506
92.9975	0.576655
93.0075	0.575827
93.0176	0.575024
93.0276	0.574245
93.0376	0.57349
93.0477	0.572759
93.0577	0.572052
93.0677	0.571369
93.0778	0.570711
93.0878	0.570077
93.0979	0.569467
93.1079	0.568882
93.1179	0.568321
93.128	0.567785
93.138	0.567274
93.148	0.566787
93.1581	0.566325
93.1681	0.565887
93.1782	0.565474
93.1882	0.565086
93.1982	0.564723
93.2083	0.564385
93.2183	0.564072
93.2283	0.563783
93.2384	0.56352
93.2484	0.563281
93.2585	0.563067
93.2685	0.562879
93.2785	0.562715
93.2886	0.562576
93.2986	0.562463
93.3086	0.562374
93.3187	0.562311
93.3287	0.562272
93.3388	0.562259
93.3488	0.56227
93.3588	0.562307
93.3689	0.562369
93.3789	0.562456
93.3889	0.562567
93.399	0.562704
93.409	0.562866
93.4191	0.563053
93.4291	0.563265
93.4391	0.563502
93.4492	0.563764
93.4592	0.56405
93.4692	0.564362
93.4793	0.564698
93.4893	0.56506
93.4994	0.565446
93.5094	0.565857
93.5194	0.566292
93.5295	0.566753
93.5395	0.567238
93.5495	0.567748
93.5596	0.568282
93.5696	0.568841
93.5797	0.569424
93.5897	0.570032
93.5997	0.570665
93.6098	0.571321
93.6198	0.572002
93.6298	0.572707
93.6399	0.573437
93.6499	0.57419
93.66	0.574968
93.67	0.575769
93.67	0.576592
93.68	0.576595
93.6901	0.577444
93.7001	0.578317
93.7101	0.579214
93.7202	0.580135
93.7302	0.581079
93.7403	0.582046
93.7503	0.583037
93.7603	0.584052
93.7704	0.585089
93.7804	0.58615
93.7904	0.587234
93.8005	0.588341
93.8105	0.58947
93.8206	0.590623
93.8306	0.591798
93.8406	0.592996
93.8507	0.594216
93.8607	0.595459
93.8707	0.596724
93.8808	0.598011
93.8908	0.59932
93.9009	0.600652
93.9109	0.602005
93.9209	0.60338
93.931	0.604776
93.941	0.606195
93.951	0.607634
93.9611	0.609095
93.9711	0.610577
93.9812	0.61208
93.9912	0.613604
94.0012	0.615149
94.0113	0.616714
94.0213	0.6183
94.0313	0.619906
94.0414	0.621533
94.0514	0.62318
94.0615	0.624847
94.0715	0.626533
94.0815	0.62824
94.0916	0.629966
94.1016	0.631711
94.1116	0.633476
94.1217	0.63526
94.1317	0.637063
94.1418	0.638884
94.1518	0.640725
94.1618	0.642584
94.1719	0.644461
94.1819	0.646357
94.1919	0.648271
94.202	0.650202
94.212	0.652152
94.2221	0.654119
94.2321	0.656103
94.2421	0.658105
94.2522	0.660124
94.2622	0.66216
94.2722	0.664212
94.2823	0.666281
94.2923	0.668367
94.3024	0.670469
94.3124	0.672587
94.3224	0.674721
94.3325	0.67687
94.3425	0.679035
94.3525	0.681216
94.3626	0.683412
94.3726	0.685622
94.3827	0.687848
94.3927	0.690088
94.4027	0.692343
94.4128	0.694612
94.4228	0.696895
94.4328	0.699192
94.4429	0.701503
94.4529	0.703827
94.463	0.706164
94.473	0.708515
94.483	0.710878
94.4931	0.713255
94.5031	0.715644
94.5131	0.718045
94.5232	0.720458
94.5332	0.722883
94.5433	0.72532
94.5533	0.727769
94.5633	0.730229
94.5734	0.7327
94.5834	0.735182
94.5934	0.737675
94.6035	0.740178
94.6135	0.742691
94.6236	0.745215
94.6336	0.747748
94.6436	0.750292
94.6537	0.752844
94.6637	0.755406
94.6737	0.757977
94.6838	0.760557
94.6938	0.763145
94.7039	0.765742
94.7139	0.768347
94.7239	0.77096
94.734	0.773581
94.744	0.776209
94.754	0.778845
94.7641	0.781488
94.7741	0.784138
94.7842	0.786794
94.7942	0.789457
94.8042	0.792126
94.8143	0.794801
94.8243	0.797481
94.8343	0.800168
94.8444	0.802859
94.8544	0.805556
94.8645	0.808258
94.8745	0.810964
94.8845	0.813675
94.8946	0.81639
94.9046	0.819109
94.9146	0.821832
94.9247	0.824558
94.9347	0.827288
94.9448	0.830021
94.9548	0.832756
94.9648	0.835495
94.9749	0.838235
94.9849	0.840978
94.9949	0.843723
95.005	0.84647
95.015	0.849218
95.0251	0.851967
95.0351	0.854717
95.0451	0.857468
95.0552	0.86022
95.0652	0.862972
95.0752	0.865725
95.0853	0.868477
95.0953	0.871229
95.1054	0.87398
95.1154	0.876731
95.1254	0.87948
95.1355	0.882229
95.1455	0.884975
95.1555	0.887721
95.1656	0.890464
95.1756	0.893205
95.1857	0.895944
95.1957	0.89868
95.2057	0.901413
95.2158	0.904144
95.2258	0.906871
95.2358	0.909594
95.2459	0.912314
95.2559	0.91503
95.266	0.917741
95.276	0.920449
95.286	0.923151
95.2961	0.925849
95.3061	0.928542
95.3161	0.931229
95.3262	0.933911
95.3362	0.936587
95.3463	0.939257
95.3563	0.941921
95.3663	0.944579
95.3764	0.94723
95.3864	0.949874
95.3964	0.952511
95.4065	0.955141
95.4165	0.957763
95.4266	0.960377
95.4366	0.962984
95.4466	0.965583
95.4567	0.968173
95.4667	0.970754
95.4767	0.973327
95.4868	0.975891
95.4968	0.978445
95.5069	0.98099
95.5169	0.983526
95.5269	0.986051
95.537	0.988567
95.547	0.991072
95.557	0.993567
95.5671	0.996051
95.5771	0.998524
95.5872	1.00099
95.5972	1.00344
95.6072	1.00588
95.6173	1.0083
95.6273	1.01072
95.6373	1.01312
95.6474	1.01551
95.6574	1.01789
95.6675	1.02026
95.6775	1.02261
95.6875	1.02495
95.6976	1.02728
95.7076	1.02959
95.7176	1.03189
95.7277	1.03418
95.7377	1.03645
95.7478	1.03871
95.7578	1.04095
95.7678	1.04318
95.7779	1.04539
95.7879	1.04759
95.7979	1.04977
95.808	1.05194
95.818	1.05409
95.8281	1.05623
95.8381	1.05835
95.8481	1.06046
95.8582	1.06255
95.8682	1.06462
95.8782	1.06667
95.8883	1.06871
95.8983	1.07074
95.9084	1.07274
95.9184	1.07473
95.9284	1.0767
95.9385	1.07865
95.9485	1.08059
95.9585	1.0825
95.9686	1.0844
95.9786	1.08628
95.9887	1.08815
95.9987	1.08999
96.0087	1.09182
96.0188	1.09362
96.0288	1.09541
96.0388	1.09718
96.0489	1.09893
96.0589	1.10066
96.069	1.10237
96.079	1.10406
96.089	1.10573
96.0991	1.10738
96.1091	1.10901
96.1191	1.11062
96.1292	1.11221
96.1392	1.11378
96.1493	1.11533
96.1593	1.11686
96.1693	1.11836
96.1794	1.11985
96.1894	1.12132
96.1994	1.12276
96.2095	1.12418
96.2195	1.12558
96.2296	1.12696
96.2396	1.12832
96.2496	1.12965
96.2597	1.13097
96.2697	1.13226
96.2797	1.13353
96.2898	1.13478
96.2998	1.136
96.3099	1.1372
96.3199	1.13838
96.3299	1.13954
96.34	1.14067
96.34	1.14178
96.35	1.14178
96.36	1.14287
96.3701	1.14394
96.3801	1.14498
96.3902	1.146
96.4002	1.14699
96.4102	1.14797
96.4203	1.14892
96.4303	1.14984
96.4403	1.15074
96.4504	1.15162
96.4604	1.15247
96.4705	1.1533
96.4805	1.15411
96.4905	1.15489
96.5006	1.15565
96.5106	1.15638
96.5206	1.15709
96.5307	1.15778
96.5407	1.15844
96.5508	1.15908
96.5608	1.15969
96.5708	1.16028
96.5809	1.16084
96.5909	1.16138
96.6009	1.1619
96.611	1.16239
96.621	1.16285
96.6311	1.16329
96.6411	1.16371
96.6511	1.1641
96.6612	1.16446
96.6712	1.16481
96.6812	1.16512
96.6913	1.16541
96.7013	1.16568
96.7114	1.16592
96.7214	1.16614
96.7314	1.16633
96.7415	1.1665
96.7515	1.16664
96.7615	1.16676
96.7716	1.16685
96.7816	1.16691
96.7917	1.16696
96.8017	1.16697
96.8117	1.16696
96.8218	1.16693
96.8318	1.16687
96.8418	1.16679
96.8519	1.16668
96.8619	1.16655
96.872	1.16639
96.882	1.1662
96.892	1.16599
96.9021	1.16576
96.9121	1.1655
96.9221	1.16522
96.9322	1.16491
96.9422	1.16458
96.9523	1.16422
96.9623	1.16383
96.9723	1.16343
96.9824	1.16299
96.9924	1.16254
97.0024	1.16205
97.0125	1.16155
97.0225	1.16102
97.0326	1.16046
97.0426	1.15988
97.0526	1.15928
97.0627	1.15865
97.0727	1.15799
97.0827	1.15731
97.0928	1.15661
97.1028	1.15589
97.1129	1.15514
97.1229	1.15436
97.1329	1.15356
97.143	1.15274
97.153	1.15189
97.163	1.15102
97.1731	1.15013
97.1831	1.14921
97.1932	1.14827
97.2032	1.14731
97.2132	1.14632
97.2233	1.14531
97.2333	1.14427
97.2433	1.14321
97.2534	1.14213
97.2634	1.14103
97.2735	1.1399
97.2835	1.13875
97.2935	1.13758
97.3036	1.13638
97.3136	1.13517
97.3236	1.13393
97.3337	1.13266
97.3437	1.13138
97.3538	1.13007
97.3638	1.12874
97.3738	1.12739
97.3839	1.12602
97.3939	1.12463
97.4039	1.12321
97.414	1.12178
97.424	1.12032
97.4341	1.11884
97.4441	1.11734
97.4541	1.11582
97.4642	1.11427
97.4742	1.11271
97.4842	1.11113
97.4943	1.10952
97.5043	1.1079
97.5144	1.10625
97.5244	1.10459
97.5344	1.10291
97.5445	1.1012
97.5545	1.09948
97.5645	1.09774
97.5746	1.09597
97.5846	1.09419
97.5947	1.09239
97.6047	1.09057
97.6147	1.08873
97.6248	1.08688
97.6348	1.085
97.6448	1.08311
97.6549	1.0812
97.6649	1.07927
97.675	1.07732
97.685	1.07536
97.695	1.07337
97.7051	1.07137
97.7151	1.06936
97.7251	1.06732
97.7352	1.06527
97.7452	1.0632
97.7553	1.06112
97.7653	1.05902
97.7753	1.05691
97.7854	1.05477
97.7954	1.05263
97.8054	1.05046
97.8155	1.04828
97.8255	1.04609
97.8356	1.04388
97.8456	1.04166
97.8556	1.03942
97.8657	1.03717
97.8757	1.0349
97.8857	1.03262
97.8958	1.03032
97.9058	1.02801
97.9159	1.02569
97.9259	1.02335
97.9359	1.02101
97.946	1.01864
97.956	1.01627
97.966	1.01388
97.9761	1.01148
97.9861	1.00907
97.9962	1.00665
98.0062	1.00421
98.0162	1.00176
98.0263	0.999305
98.0363	0.996835
98.0463	0.994355
98.0564	0.991863
98.0664	0.989361
98.0765	0.986849
98.0865	0.984327
98.0965	0.981794
98.1066	0.979252
98.1166	0.976701
98.1266	0.97414
98.1367	0.97157
98.1467	0.968991
98.1568	0.966404
98.1668	0.963808
98.1768	0.961204
98.1869	0.958592
98.1969	0.955972
98.2069	0.953345
98.217	0.95071
98.227	0.948068
98.2371	0.945419
98.2471	0.942764
98.2571	0.940102
98.2672	0.937434
98.2772	0.934759
98.2872	0.932079
98.2973	0.929394
98.3073	0.926703
98.3174	0.924006
98.3274	0.921305
98.3374	0.918599
98.3475	0.915889
98.3575	0.913175
98.3675	0.910456
98.3776	0.907734
98.3876	0.905008
98.3977	0.902279
98.4077	0.899546
98.4177	0.896811
98.4278	0.894073
98.4378	0.891333
98.4478	0.88859
98.4579	0.885845
98.4679	0.883099
98.478	0.880351
98.488	0.877602
98.498	0.874852
98.5081	0.872101
98.5181	0.869349
98.5281	0.866597
98.5382	0.863844
98.5482	0.861092
98.5583	0.85834
98.5683	0.855589
98.5783	0.852838
98.5884	0.850088
98.5984	0.84734
98.6084	0.844593
98.6185	0.841848
98.6285	0.839104
98.6386	0.836363
98.6486	0.833624
98.6586	0.830887
98.6687	0.828153
98.6787	0.825423
98.6887	0.822695
98.6988	0.819971
98.7088	0.817251
98.7189	0.814535
98.7289	0.811823
98.7389	0.809115
98.749	0.806412
98.759	0.803713
98.769	0.80102
98.7791	0.798332
98.7891	0.795649
98.7992	0.792972
98.8092	0.790302
98.8192	0.787637
98.8293	0.784978
98.8393	0.782327
98.8493	0.779682
98.8594	0.777044
98.8694	0.774413
98.8795	0.77179
98.8895	0.769174
98.8995	0.766567
98.9096	0.763967
98.9196	0.761376
98.9296	0.758794
98.9397	0.75622
98.9497	0.753655
98.9598	0.751099
98.9698	0.748553
98.9798	0.746016
98.9899	0.74349
98.9999	0.740973
99.0099	0.738466
99.02	0.73597
99.02	0.733494
99.03	0.733485
99.0401	0.73101
99.0501	0.728547
99.0601	0.726095
99.0702	0.723654
99.0802	0.721225
99.0902	0.718808
99.1003	0.716403
99.1103	0.71401
99.1204	0.71163
99.1304	0.709262
99.1404	0.706908
99.1505	0.704566
99.1605	0.702237
99.1705	0.699922
99.1806	0.697621
99.1906	0.695334
99.2007	0.69306
99.2107	0.690801
99.2207	0.688556
99.2308	0.686326
99.2408	0.68411
99.2508	0.68191
99.2609	0.679725
99.2709	0.677554
99.281	0.6754
99.291	0.673261
99.301	0.671138
99.3111	0.669031
99.3211	0.66694
99.3311	0.664866
99.3412	0.662808
99.3512	0.660767
99.3613	0.658743
99.3713	0.656735
99.3813	0.654746
99.3914	0.652773
99.4014	0.650818
99.4114	0.648881
99.4215	0.646961
99.4315	0.64506
99.4416	0.643177
99.4516	0.641312
99.4616	0.639465
99.4717	0.637638
99.4817	0.635829
99.4917	0.634039
99.5018	0.632268
99.5118	0.630517
99.5219	0.628784
99.5319	0.627072
99.5419	0.625379
99.552	0.623706
99.562	0.622053
99.572	0.62042
99.5821	0.618807
99.5921	0.617214
99.6022	0.615642
99.6122	0.614091
99.6222	0.61256
99.6323	0.611051
99.6423	0.609562
99.6523	0.608095
99.6624	0.606648
99.6724	0.605223
99.6825	0.60382
99.6925	0.602438
99.7025	0.601078
99.7126	0.59974
99.7226	0.598424
99.7326	0.597129
99.7427	0.595857
99.7527	0.594608
99.7628	0.59338
99.7728	0.592175
99.7828	0.590993
99.7929	0.589833
99.8029	0.588696
99.8129	0.587582
99.823	0.586491
99.833	0.585423
99.8431	0.584378
99.8531	0.583356
99.8631	0.582358
99.8732	0.581383
99.8832	0.580431
99.8932	0.579503
99.9033	0.578599
99.9133	0.577718
99.9234	0.576861
99.9334	0.576028
99.9434	0.575219
99.9535	0.574434
99.9635	0.573673
99.9735	0.572936
99.9836	0.572223
99.9936	0.571534
